Unnamed: 0,correct_keyboard_response_1,correct_response,flanker_condition,opensesame_codename,opensesame_version,response_keyboard_response_1,response_time_keyboard_response_1,subject_nr,target_type
0,1,M,7,Lentiform Loewenfeld,3.3.8,m,590.8848999999464,37,word
1,1,C,5,Lentiform Loewenfeld,3.3.8,c,642.9444000000076,37,nonword
2,1,M,6,Lentiform Loewenfeld,3.3.8,m,478.22950000001583,37,word
3,1,M,5,Lentiform Loewenfeld,3.3.8,m,552.9799000000348,37,word
4,1,C,7,Lentiform Loewenfeld,3.3.8,c,638.7869999999821,37,nonword
5,1,M,2,Lentiform Loewenfeld,3.3.8,m,564.3582999999926,37,word
6,0,M,7,Lentiform Loewenfeld,3.3.8,c,889.0930000000226,37,word
7,1,C,7,Lentiform Loewenfeld,3.3.8,c,669.4748000000254,37,nonword
8,1,C,5,Lentiform Loewenfeld,3.3.8,c,709.7743000000191,37,nonword
9,0,C,7,Lentiform Loewenfeld,3.3.8,m,739.6903999999922,37,nonword
10,0,C,7,Lentiform Loewenfeld,3.3.8,m,769.1068000000669,37,nonword
11,1,M,6,Lentiform Loewenfeld,3.3.8,m,618.3354999999574,37,word
12,1,M,2,Lentiform Loewenfeld,3.3.8,m,487.61149999997,37,word
13,1,C,3,Lentiform Loewenfeld,3.3.8,c,654.0664999999863,37,nonword
14,1,C,5,Lentiform Loewenfeld,3.3.8,c,829.9848000000056,37,nonword
15,0,C,5,Lentiform Loewenfeld,3.3.8,m,640.75900000002,37,nonword
16,1,C,5,Lentiform Loewenfeld,3.3.8,c,714.7538999999815,37,nonword
17,1,M,6,Lentiform Loewenfeld,3.3.8,m,557.4615999999805,37,word
18,1,C,2,Lentiform Loewenfeld,3.3.8,c,593.3738000000303,37,nonword
19,1,C,3,Lentiform Loewenfeld,3.3.8,c,589.8001999999979,37,nonword
20,0,C,6,Lentiform Loewenfeld,3.3.8,m,725.2415000000037,37,nonword
21,1,C,1,Lentiform Loewenfeld,3.3.8,c,734.9761999999755,37,nonword
22,1,M,3,Lentiform Loewenfeld,3.3.8,m,634.787799999991,37,word
23,1,M,1,Lentiform Loewenfeld,3.3.8,m,509.5014000000083,37,word
24,1,C,4,Lentiform Loewenfeld,3.3.8,c,579.6043000000063,37,nonword
25,0,C,6,Lentiform Loewenfeld,3.3.8,m,1030.7141999999876,37,nonword
26,1,M,5,Lentiform Loewenfeld,3.3.8,m,679.1420999999973,37,word
27,1,M,4,Lentiform Loewenfeld,3.3.8,m,596.3538000000117,37,word
28,1,M,4,Lentiform Loewenfeld,3.3.8,m,477.43369999999413,37,word
29,1,C,5,Lentiform Loewenfeld,3.3.8,c,526.8827000000165,37,nonword
30,1,C,1,Lentiform Loewenfeld,3.3.8,c,528.498900000006,37,nonword
31,1,C,4,Lentiform Loewenfeld,3.3.8,c,734.7787999999709,37,nonword
32,0,C,6,Lentiform Loewenfeld,3.3.8,m,499.55100000000675,37,nonword
33,0,M,6,Lentiform Loewenfeld,3.3.8,c,699.6478999999526,37,word
34,1,M,5,Lentiform Loewenfeld,3.3.8,m,573.5789999999979,37,word
35,1,C,7,Lentiform Loewenfeld,3.3.8,c,625.4987999999721,37,nonword
36,1,C,3,Lentiform Loewenfeld,3.3.8,c,521.6216999999888,37,nonword
37,1,C,1,Lentiform Loewenfeld,3.3.8,c,637.2658999999985,37,nonword
38,1,M,6,Lentiform Loewenfeld,3.3.8,m,571.8244999999588,37,word
39,1,C,4,Lentiform Loewenfeld,3.3.8,c,731.7325999999302,37,nonword
40,1,M,2,Lentiform Loewenfeld,3.3.8,m,550.1367999999784,37,word
41,1,M,3,Lentiform Loewenfeld,3.3.8,m,687.0968000000285,37,word
42,1,M,5,Lentiform Loewenfeld,3.3.8,m,461.1721999999718,37,word
43,1,C,7,Lentiform Loewenfeld,3.3.8,c,621.9680999999691,37,nonword
44,1,M,2,Lentiform Loewenfeld,3.3.8,m,457.4065999999584,37,word
45,0,C,5,Lentiform Loewenfeld,3.3.8,m,637.1705000000075,37,nonword
46,1,M,6,Lentiform Loewenfeld,3.3.8,m,519.4102999999595,37,word
47,1,C,4,Lentiform Loewenfeld,3.3.8,c,561.4252999999444,37,nonword
48,1,C,5,Lentiform Loewenfeld,3.3.8,c,663.5149999999849,37,nonword
49,1,C,1,Lentiform Loewenfeld,3.3.8,c,534.8962999999931,37,nonword
50,1,M,3,Lentiform Loewenfeld,3.3.8,m,526.510099999985,37,word
51,0,C,3,Lentiform Loewenfeld,3.3.8,m,627.1152000000002,37,nonword
52,1,C,4,Lentiform Loewenfeld,3.3.8,c,787.1675999999861,37,nonword
53,1,C,5,Lentiform Loewenfeld,3.3.8,c,571.7567000000272,37,nonword
54,1,C,5,Lentiform Loewenfeld,3.3.8,c,678.2331999999878,37,nonword
55,1,M,4,Lentiform Loewenfeld,3.3.8,m,429.9087999999756,37,word
56,1,M,3,Lentiform Loewenfeld,3.3.8,m,553.8817999999737,37,word
57,1,C,1,Lentiform Loewenfeld,3.3.8,c,586.2045999999973,37,nonword
58,1,M,4,Lentiform Loewenfeld,3.3.8,m,433.5936999999685,37,word
59,1,C,4,Lentiform Loewenfeld,3.3.8,c,576.243300000031,37,nonword
60,1,M,1,Lentiform Loewenfeld,3.3.8,m,507.01680000004126,37,word
61,1,C,7,Lentiform Loewenfeld,3.3.8,c,527.7758000000031,37,nonword
62,1,C,5,Lentiform Loewenfeld,3.3.8,c,598.9406000000308,37,nonword
63,1,M,2,Lentiform Loewenfeld,3.3.8,m,548.8053000000073,37,word
64,1,M,1,Lentiform Loewenfeld,3.3.8,m,559.5819000000483,37,word
65,1,C,4,Lentiform Loewenfeld,3.3.8,c,671.2041000000318,37,nonword
66,1,M,3,Lentiform Loewenfeld,3.3.8,m,507.77209999994375,37,word
67,1,M,2,Lentiform Loewenfeld,3.3.8,m,479.4245000000228,37,word
68,1,C,3,Lentiform Loewenfeld,3.3.8,c,590.5345000000088,37,nonword
69,1,M,7,Lentiform Loewenfeld,3.3.8,m,455.8950000000186,37,word
70,1,M,1,Lentiform Loewenfeld,3.3.8,m,414.7348999999813,37,word
71,1,M,2,Lentiform Loewenfeld,3.3.8,m,442.16930000000866,37,word
72,1,C,7,Lentiform Loewenfeld,3.3.8,c,653.1447000000044,37,nonword
73,1,C,2,Lentiform Loewenfeld,3.3.8,c,596.9040999999852,37,nonword
74,1,M,3,Lentiform Loewenfeld,3.3.8,m,475.8220000000438,37,word
75,1,C,4,Lentiform Loewenfeld,3.3.8,c,669.2780000000494,37,nonword
76,0,C,6,Lentiform Loewenfeld,3.3.8,m,664.211500000034,37,nonword
77,0,C,1,Lentiform Loewenfeld,3.3.8,m,743.5682999999844,37,nonword
78,0,C,1,Lentiform Loewenfeld,3.3.8,m,762.5361999999732,37,nonword
79,1,M,3,Lentiform Loewenfeld,3.3.8,m,597.1063999999897,37,word
80,1,M,7,Lentiform Loewenfeld,3.3.8,m,1054.5528000000631,37,word
81,1,M,4,Lentiform Loewenfeld,3.3.8,m,684.9612999999663,37,word
82,1,M,2,Lentiform Loewenfeld,3.3.8,m,575.1452999999747,37,word
83,1,C,5,Lentiform Loewenfeld,3.3.8,c,591.7767999999342,37,nonword
84,1,C,4,Lentiform Loewenfeld,3.3.8,c,1059.1937000000617,37,nonword
85,1,C,6,Lentiform Loewenfeld,3.3.8,c,718.756400000013,37,nonword
86,1,M,2,Lentiform Loewenfeld,3.3.8,m,505.0119000000413,37,word
87,1,C,7,Lentiform Loewenfeld,3.3.8,c,712.4639999999781,37,nonword
88,1,M,6,Lentiform Loewenfeld,3.3.8,m,612.7316999999457,37,word
89,1,M,5,Lentiform Loewenfeld,3.3.8,m,586.3175999999512,37,word
90,1,M,2,Lentiform Loewenfeld,3.3.8,m,452.0724000000628,37,word
91,1,M,3,Lentiform Loewenfeld,3.3.8,m,640.1998000000021,37,word
92,1,C,7,Lentiform Loewenfeld,3.3.8,c,562.1705000000075,37,nonword
93,0,M,6,Lentiform Loewenfeld,3.3.8,c,833.0540999999503,37,word
94,1,M,2,Lentiform Loewenfeld,3.3.8,m,584.2625000000698,37,word
95,1,M,7,Lentiform Loewenfeld,3.3.8,m,560.8856000000378,37,word
96,1,C,6,Lentiform Loewenfeld,3.3.8,c,542.3761999999406,37,nonword
97,1,M,6,Lentiform Loewenfeld,3.3.8,m,506.623799999943,37,word
98,0,C,3,Lentiform Loewenfeld,3.3.8,m,720.710999999952,37,nonword
99,1,M,7,Lentiform Loewenfeld,3.3.8,m,503.7614000000176,37,word
100,1,M,1,Lentiform Loewenfeld,3.3.8,m,353.8827000000165,37,word
101,1,M,4,Lentiform Loewenfeld,3.3.8,m,350.36230000003707,37,word
102,0,M,6,Lentiform Loewenfeld,3.3.8,c,367.67620000004536,37,word
103,1,C,7,Lentiform Loewenfeld,3.3.8,c,782.6020000000135,37,nonword
104,1,C,7,Lentiform Loewenfeld,3.3.8,c,576.3902000000235,37,nonword
105,1,M,3,Lentiform Loewenfeld,3.3.8,m,384.10880000004545,37,word
106,1,M,4,Lentiform Loewenfeld,3.3.8,m,491.561400000006,37,word
107,1,M,1,Lentiform Loewenfeld,3.3.8,m,383.83950000006007,37,word
108,1,C,4,Lentiform Loewenfeld,3.3.8,c,542.79589999991,37,nonword
109,1,M,5,Lentiform Loewenfeld,3.3.8,m,356.873799999943,37,word
110,1,C,5,Lentiform Loewenfeld,3.3.8,c,706.991399999999,37,nonword
111,1,C,3,Lentiform Loewenfeld,3.3.8,c,589.5633999999845,37,nonword
112,1,C,2,Lentiform Loewenfeld,3.3.8,c,682.6804999999586,37,nonword
113,1,M,6,Lentiform Loewenfeld,3.3.8,m,521.4238999999361,37,word
114,1,M,4,Lentiform Loewenfeld,3.3.8,m,569.7068999999319,37,word
115,0,M,2,Lentiform Loewenfeld,3.3.8,c,635.6351000000723,37,word
116,1,C,4,Lentiform Loewenfeld,3.3.8,c,783.5593999999692,37,nonword
117,1,C,1,Lentiform Loewenfeld,3.3.8,c,1166.982500000042,37,nonword
118,1,C,4,Lentiform Loewenfeld,3.3.8,c,768.4831000000122,37,nonword
119,1,C,1,Lentiform Loewenfeld,3.3.8,c,599.0776000000187,37,nonword
120,1,M,1,Lentiform Loewenfeld,3.3.8,m,549.6485000000102,37,word
121,1,M,7,Lentiform Loewenfeld,3.3.8,m,471.94209999998566,37,word
122,1,C,3,Lentiform Loewenfeld,3.3.8,c,651.5764000000781,37,nonword
123,1,M,3,Lentiform Loewenfeld,3.3.8,m,543.663899999985,37,word
124,0,C,7,Lentiform Loewenfeld,3.3.8,m,376.4190000001108,37,nonword
125,1,M,5,Lentiform Loewenfeld,3.3.8,m,577.7166000001016,37,word
126,1,M,4,Lentiform Loewenfeld,3.3.8,m,605.3203000000212,37,word
127,1,C,4,Lentiform Loewenfeld,3.3.8,c,549.5833000000566,37,nonword
128,1,C,4,Lentiform Loewenfeld,3.3.8,c,637.8225000000093,37,nonword
129,1,C,7,Lentiform Loewenfeld,3.3.8,c,766.9409000000451,37,nonword
130,1,C,7,Lentiform Loewenfeld,3.3.8,c,576.3084999999846,37,nonword
131,1,M,7,Lentiform Loewenfeld,3.3.8,m,642.1240000000107,37,word
132,1,M,5,Lentiform Loewenfeld,3.3.8,m,415.7343000000692,37,word
133,1,C,1,Lentiform Loewenfeld,3.3.8,c,420.68329999997513,37,nonword
134,1,M,3,Lentiform Loewenfeld,3.3.8,m,503.6259999999311,37,word
135,1,C,6,Lentiform Loewenfeld,3.3.8,c,553.3890000000829,37,nonword
136,1,M,3,Lentiform Loewenfeld,3.3.8,m,484.3330999999889,37,word
137,1,C,7,Lentiform Loewenfeld,3.3.8,c,524.2898000000278,37,nonword
138,1,M,1,Lentiform Loewenfeld,3.3.8,m,395.2256000000634,37,word
139,1,C,6,Lentiform Loewenfeld,3.3.8,c,787.6500000000233,37,nonword
140,1,M,5,Lentiform Loewenfeld,3.3.8,m,447.45670000003884,37,word
141,0,C,5,Lentiform Loewenfeld,3.3.8,m,432.9202000000514,37,nonword
142,1,M,4,Lentiform Loewenfeld,3.3.8,m,588.5061000000569,37,word
143,1,C,7,Lentiform Loewenfeld,3.3.8,c,566.7832000000635,37,nonword
144,1,M,5,Lentiform Loewenfeld,3.3.8,m,420.2278000000515,37,word
145,1,M,1,Lentiform Loewenfeld,3.3.8,m,470.3892000000342,37,word
146,1,C,4,Lentiform Loewenfeld,3.3.8,c,1006.8201000000699,37,nonword
147,1,M,1,Lentiform Loewenfeld,3.3.8,m,441.8674999999348,37,word
148,1,C,3,Lentiform Loewenfeld,3.3.8,c,647.1707999999635,37,nonword
149,1,M,1,Lentiform Loewenfeld,3.3.8,m,487.9042999999947,37,word
150,1,C,7,Lentiform Loewenfeld,3.3.8,c,621.7051999999676,37,nonword
151,1,M,2,Lentiform Loewenfeld,3.3.8,m,600.158400000073,37,word
152,1,C,3,Lentiform Loewenfeld,3.3.8,c,596.4197999999742,37,nonword
153,1,M,4,Lentiform Loewenfeld,3.3.8,m,788.1539000000339,37,word
154,1,M,1,Lentiform Loewenfeld,3.3.8,m,543.2521000000415,37,word
155,1,C,2,Lentiform Loewenfeld,3.3.8,c,566.5316999999923,37,nonword
156,1,C,1,Lentiform Loewenfeld,3.3.8,c,655.1532999999472,37,nonword
157,1,C,1,Lentiform Loewenfeld,3.3.8,c,844.3801000000094,37,nonword
158,0,C,2,Lentiform Loewenfeld,3.3.8,m,474.3020999999717,37,nonword
159,1,M,1,Lentiform Loewenfeld,3.3.8,m,608.7467000000179,37,word
160,1,C,6,Lentiform Loewenfeld,3.3.8,c,643.1845999999787,37,nonword
161,1,C,3,Lentiform Loewenfeld,3.3.8,c,569.4260000000359,37,nonword
162,1,C,7,Lentiform Loewenfeld,3.3.8,c,646.9013999999734,37,nonword
163,0,M,4,Lentiform Loewenfeld,3.3.8,c,479.64140000002226,37,word
164,1,C,7,Lentiform Loewenfeld,3.3.8,c,1062.788099999947,37,nonword
165,1,C,2,Lentiform Loewenfeld,3.3.8,c,706.5447999999742,37,nonword
166,1,C,2,Lentiform Loewenfeld,3.3.8,c,744.4561000000103,37,nonword
167,1,C,4,Lentiform Loewenfeld,3.3.8,c,604.1920000000391,37,nonword
168,1,M,3,Lentiform Loewenfeld,3.3.8,m,571.7896000000183,37,word
169,1,M,7,Lentiform Loewenfeld,3.3.8,m,547.0920000000042,37,word
170,1,M,5,Lentiform Loewenfeld,3.3.8,m,379.8424999999115,37,word
171,1,M,7,Lentiform Loewenfeld,3.3.8,m,663.1182999999728,37,word
172,1,C,6,Lentiform Loewenfeld,3.3.8,c,565.7135999999591,37,nonword
173,0,M,6,Lentiform Loewenfeld,3.3.8,c,932.9585000000661,37,word
174,1,C,6,Lentiform Loewenfeld,3.3.8,c,783.6231000000262,37,nonword
175,1,C,5,Lentiform Loewenfeld,3.3.8,c,518.9224000000977,37,nonword
176,0,C,6,Lentiform Loewenfeld,3.3.8,m,618.8681000000215,37,nonword
177,1,M,3,Lentiform Loewenfeld,3.3.8,m,755.7846999999601,37,word
178,1,M,1,Lentiform Loewenfeld,3.3.8,m,480.8945999999996,37,word
179,1,M,2,Lentiform Loewenfeld,3.3.8,m,341.2923999999766,37,word
180,1,M,3,Lentiform Loewenfeld,3.3.8,m,394.1058999997913,37,word
181,1,C,3,Lentiform Loewenfeld,3.3.8,c,665.7428000000073,37,nonword
182,1,C,2,Lentiform Loewenfeld,3.3.8,c,599.6482999997679,37,nonword
183,1,C,3,Lentiform Loewenfeld,3.3.8,c,778.7801000000909,37,nonword
184,0,C,6,Lentiform Loewenfeld,3.3.8,m,814.9944000000833,37,nonword
185,1,M,4,Lentiform Loewenfeld,3.3.8,m,479.2544000000926,37,word
186,1,C,2,Lentiform Loewenfeld,3.3.8,c,600.6631999999518,37,nonword
187,1,M,4,Lentiform Loewenfeld,3.3.8,m,474.4456999998074,37,word
188,1,M,5,Lentiform Loewenfeld,3.3.8,m,395.2479000000749,37,word
189,1,M,7,Lentiform Loewenfeld,3.3.8,m,387.7190999999875,37,word
190,1,C,7,Lentiform Loewenfeld,3.3.8,c,627.3153999999631,37,nonword
191,1,C,2,Lentiform Loewenfeld,3.3.8,c,608.2622000001138,37,nonword
192,1,C,6,Lentiform Loewenfeld,3.3.8,c,661.6962999999523,37,nonword
193,1,C,1,Lentiform Loewenfeld,3.3.8,c,1005.1346999999369,37,nonword
194,1,M,5,Lentiform Loewenfeld,3.3.8,m,493.68000000016764,37,word
195,1,M,5,Lentiform Loewenfeld,3.3.8,m,496.7657000001054,37,word
196,0,C,7,Lentiform Loewenfeld,3.3.8,m,349.69919999991544,37,nonword
197,1,M,2,Lentiform Loewenfeld,3.3.8,m,790.8388000000268,37,word
198,1,M,2,Lentiform Loewenfeld,3.3.8,m,460.7514999998966,37,word
199,1,M,1,Lentiform Loewenfeld,3.3.8,m,362.85470000002533,37,word
200,0,C,5,Lentiform Loewenfeld,3.3.8,m,361.7912999999244,37,nonword
201,1,C,3,Lentiform Loewenfeld,3.3.8,c,740.9459000001661,37,nonword
202,1,C,2,Lentiform Loewenfeld,3.3.8,c,750.8211999998894,37,nonword
203,1,C,1,Lentiform Loewenfeld,3.3.8,c,609.9167999998899,37,nonword
204,1,M,5,Lentiform Loewenfeld,3.3.8,m,787.3292999998666,37,word
205,1,M,2,Lentiform Loewenfeld,3.3.8,m,539.0537999999942,37,word
206,1,M,5,Lentiform Loewenfeld,3.3.8,m,349.4773999999743,37,word
207,1,M,3,Lentiform Loewenfeld,3.3.8,m,449.2890999999363,37,word
208,0,C,6,Lentiform Loewenfeld,3.3.8,m,406.4155000000028,37,nonword
209,1,C,5,Lentiform Loewenfeld,3.3.8,c,671.6872000001604,37,nonword
210,0,M,7,Lentiform Loewenfeld,3.3.8,c,824.6187999999383,37,word
211,1,M,7,Lentiform Loewenfeld,3.3.8,m,453.2097000000067,37,word
212,1,M,3,Lentiform Loewenfeld,3.3.8,m,540.4664000001503,37,word
213,1,M,6,Lentiform Loewenfeld,3.3.8,m,449.8880000000354,37,word
214,0,C,1,Lentiform Loewenfeld,3.3.8,m,328.49849999998696,37,nonword
215,1,C,4,Lentiform Loewenfeld,3.3.8,c,626.9872999998042,37,nonword
216,1,C,3,Lentiform Loewenfeld,3.3.8,c,740.7623999998905,37,nonword
217,1,M,5,Lentiform Loewenfeld,3.3.8,m,468.8277000001399,37,word
218,1,M,5,Lentiform Loewenfeld,3.3.8,m,400.1217000001343,37,word
219,1,C,1,Lentiform Loewenfeld,3.3.8,c,649.4166000001132,37,nonword
220,1,M,2,Lentiform Loewenfeld,3.3.8,m,485.05080000008456,37,word
221,1,M,6,Lentiform Loewenfeld,3.3.8,m,549.1643000001786,37,word
222,1,M,2,Lentiform Loewenfeld,3.3.8,m,555.7588000000687,37,word
223,1,M,6,Lentiform Loewenfeld,3.3.8,m,439.88199999998324,37,word
224,1,C,5,Lentiform Loewenfeld,3.3.8,c,835.9655999998795,37,nonword
225,1,M,1,Lentiform Loewenfeld,3.3.8,m,569.8728000001283,37,word
226,0,C,2,Lentiform Loewenfeld,3.3.8,m,372.2784999998985,37,nonword
227,1,C,4,Lentiform Loewenfeld,3.3.8,c,792.4440000001341,37,nonword
228,1,C,2,Lentiform Loewenfeld,3.3.8,c,711.9949999999953,37,nonword
229,1,M,6,Lentiform Loewenfeld,3.3.8,m,730.231899999897,37,word
230,1,M,1,Lentiform Loewenfeld,3.3.8,m,590.3081000000238,37,word
231,1,C,2,Lentiform Loewenfeld,3.3.8,c,710.4111000000266,37,nonword
232,1,M,7,Lentiform Loewenfeld,3.3.8,m,433.5126000000164,37,word
233,1,M,7,Lentiform Loewenfeld,3.3.8,m,502.75659999996424,37,word
234,0,C,3,Lentiform Loewenfeld,3.3.8,m,521.7415000000037,37,nonword
235,1,M,1,Lentiform Loewenfeld,3.3.8,m,691.3240999999689,37,word
236,1,C,5,Lentiform Loewenfeld,3.3.8,c,571.4384999999311,37,nonword
237,1,M,4,Lentiform Loewenfeld,3.3.8,m,529.2399000001606,37,word
238,1,M,1,Lentiform Loewenfeld,3.3.8,m,506.656399999978,37,word
239,1,C,3,Lentiform Loewenfeld,3.3.8,c,592.6112999999896,37,nonword
240,1,M,2,Lentiform Loewenfeld,3.3.8,m,651.374899999937,37,word
241,1,M,2,Lentiform Loewenfeld,3.3.8,m,510.5844000001671,37,word
242,1,M,7,Lentiform Loewenfeld,3.3.8,m,499.9254999998957,37,word
243,1,M,6,Lentiform Loewenfeld,3.3.8,m,885.5498999999836,37,word
244,1,C,4,Lentiform Loewenfeld,3.3.8,c,656.7989999999991,37,nonword
245,1,M,7,Lentiform Loewenfeld,3.3.8,m,600.5344000000041,37,word
246,1,M,3,Lentiform Loewenfeld,3.3.8,m,780.3238000000129,37,word
247,1,M,2,Lentiform Loewenfeld,3.3.8,m,517.4020999999484,37,word
248,1,M,7,Lentiform Loewenfeld,3.3.8,m,384.691100000171,37,word
249,1,C,3,Lentiform Loewenfeld,3.3.8,c,631.7902999998769,37,nonword
250,1,C,6,Lentiform Loewenfeld,3.3.8,c,672.7060000000056,37,nonword
251,1,M,7,Lentiform Loewenfeld,3.3.8,m,486.5091999998549,37,word
252,1,M,7,Lentiform Loewenfeld,3.3.8,m,394.78610000002664,37,word
253,1,C,5,Lentiform Loewenfeld,3.3.8,c,560.3896000001114,37,nonword
254,1,M,4,Lentiform Loewenfeld,3.3.8,m,365.97120000002906,37,word
255,0,C,2,Lentiform Loewenfeld,3.3.8,m,393.2544999999227,37,nonword
256,1,C,6,Lentiform Loewenfeld,3.3.8,c,625.2356999999611,37,nonword
257,1,M,4,Lentiform Loewenfeld,3.3.8,m,536.9977000001818,37,word
258,1,M,6,Lentiform Loewenfeld,3.3.8,m,424.2313000001013,37,word
259,1,C,7,Lentiform Loewenfeld,3.3.8,c,567.871799999848,37,nonword
260,1,M,3,Lentiform Loewenfeld,3.3.8,m,498.9232000001939,37,word
261,0,C,6,Lentiform Loewenfeld,3.3.8,m,561.0455000000075,37,nonword
262,1,C,7,Lentiform Loewenfeld,3.3.8,c,615.8068000001367,37,nonword
263,1,C,2,Lentiform Loewenfeld,3.3.8,c,605.0819999999367,37,nonword
264,1,C,5,Lentiform Loewenfeld,3.3.8,c,630.5125999997836,37,nonword
265,1,M,6,Lentiform Loewenfeld,3.3.8,m,467.4693999999436,37,word
266,1,C,7,Lentiform Loewenfeld,3.3.8,c,657.8702999999514,37,nonword
267,1,M,4,Lentiform Loewenfeld,3.3.8,m,359.84439999982715,37,word
268,1,M,5,Lentiform Loewenfeld,3.3.8,m,468.62060000002384,37,word
269,1,M,7,Lentiform Loewenfeld,3.3.8,m,425.278599999845,37,word
270,1,M,6,Lentiform Loewenfeld,3.3.8,m,386.36220000009047,37,word
271,0,C,6,Lentiform Loewenfeld,3.3.8,m,337.9574000001885,37,nonword
272,1,M,3,Lentiform Loewenfeld,3.3.8,m,538.9067000000505,37,word
273,1,C,1,Lentiform Loewenfeld,3.3.8,c,614.5356000000611,37,nonword
274,1,M,1,Lentiform Loewenfeld,3.3.8,m,521.7775000000838,37,word
275,1,C,1,Lentiform Loewenfeld,3.3.8,c,593.0657000000356,37,nonword
276,1,M,6,Lentiform Loewenfeld,3.3.8,m,566.5247999998974,37,word
277,1,C,3,Lentiform Loewenfeld,3.3.8,c,522.6016999998828,37,nonword
278,1,C,4,Lentiform Loewenfeld,3.3.8,c,533.205600000103,37,nonword
279,1,M,4,Lentiform Loewenfeld,3.3.8,m,438.8607999997912,37,word
280,1,C,4,Lentiform Loewenfeld,3.3.8,c,676.1925000000047,37,nonword
281,1,M,4,Lentiform Loewenfeld,3.3.8,m,509.87519999977667,37,word
282,1,M,6,Lentiform Loewenfeld,3.3.8,m,563.8246999997646,37,word
283,1,M,3,Lentiform Loewenfeld,3.3.8,m,399.6406999998726,37,word
284,0,C,2,Lentiform Loewenfeld,3.3.8,m,552.8673000000417,37,nonword
285,1,C,1,Lentiform Loewenfeld,3.3.8,c,583.9644000000553,37,nonword
286,1,C,1,Lentiform Loewenfeld,3.3.8,c,744.9187000000384,37,nonword
287,1,C,1,Lentiform Loewenfeld,3.3.8,c,662.8376000000862,37,nonword
288,1,M,1,Lentiform Loewenfeld,3.3.8,m,625.9083999999566,37,word
289,0,M,6,Lentiform Loewenfeld,3.3.8,c,597.1846999999834,37,word
290,1,C,3,Lentiform Loewenfeld,3.3.8,c,669.4347000002163,37,nonword
291,1,C,6,Lentiform Loewenfeld,3.3.8,c,565.5344000001205,37,nonword
292,1,C,2,Lentiform Loewenfeld,3.3.8,c,563.313599999994,37,nonword
293,1,M,4,Lentiform Loewenfeld,3.3.8,m,624.4212000000989,37,word
294,1,M,2,Lentiform Loewenfeld,3.3.8,m,507.4769999999553,37,word
295,1,M,7,Lentiform Loewenfeld,3.3.8,m,414.07090000004973,37,word
296,1,M,6,Lentiform Loewenfeld,3.3.8,m,476.8522000000812,37,word
297,1,C,7,Lentiform Loewenfeld,3.3.8,c,886.4041000000434,37,nonword
298,1,C,3,Lentiform Loewenfeld,3.3.8,c,593.6965999997919,37,nonword
299,1,C,3,Lentiform Loewenfeld,3.3.8,c,532.4466000001412,37,nonword
300,1,C,2,Lentiform Loewenfeld,3.3.8,c,507.7245000001276,37,nonword
301,1,M,5,Lentiform Loewenfeld,3.3.8,m,428.32459999993443,37,word
302,1,M,7,Lentiform Loewenfeld,3.3.8,m,511.4281999998493,37,word
303,1,C,6,Lentiform Loewenfeld,3.3.8,c,778.0388999998104,37,nonword
304,1,C,6,Lentiform Loewenfeld,3.3.8,c,620.1511000001337,37,nonword
305,1,M,2,Lentiform Loewenfeld,3.3.8,m,640.751200000057,37,word
306,1,C,5,Lentiform Loewenfeld,3.3.8,c,555.5314999998081,37,nonword
307,0,M,3,Lentiform Loewenfeld,3.3.8,c,773.5993000000017,37,word
308,1,M,5,Lentiform Loewenfeld,3.3.8,m,446.90239999990445,37,word
309,1,C,7,Lentiform Loewenfeld,3.3.8,c,490.1562000002013,37,nonword
310,1,M,3,Lentiform Loewenfeld,3.3.8,m,364.07500000006985,37,word
311,1,M,4,Lentiform Loewenfeld,3.3.8,m,673.0370000001276,37,word
312,1,C,1,Lentiform Loewenfeld,3.3.8,c,659.2891999999993,37,nonword
313,1,M,7,Lentiform Loewenfeld,3.3.8,m,507.6972999998834,37,word
314,1,M,4,Lentiform Loewenfeld,3.3.8,m,893.5135000000009,37,word
315,1,C,4,Lentiform Loewenfeld,3.3.8,c,650.8881999999285,37,nonword
316,1,M,5,Lentiform Loewenfeld,3.3.8,m,412.97269999980927,37,word
317,0,C,1,Lentiform Loewenfeld,3.3.8,m,337.8902999998536,37,nonword
318,1,M,6,Lentiform Loewenfeld,3.3.8,m,683.5730000000913,37,word
319,1,M,5,Lentiform Loewenfeld,3.3.8,m,419.1357000001008,37,word
320,1,M,5,Lentiform Loewenfeld,3.3.8,m,378.28579999983776,37,word
321,1,M,1,Lentiform Loewenfeld,3.3.8,m,384.23620000015944,37,word
322,0,C,5,Lentiform Loewenfeld,3.3.8,m,429.016900000046,37,nonword
323,1,M,3,Lentiform Loewenfeld,3.3.8,m,524.7816999998176,37,word
324,1,C,5,Lentiform Loewenfeld,3.3.8,c,475.0574000000488,37,nonword
325,1,M,2,Lentiform Loewenfeld,3.3.8,m,538.153299999889,37,word
326,1,C,5,Lentiform Loewenfeld,3.3.8,c,579.5429000001168,37,nonword
327,1,M,2,Lentiform Loewenfeld,3.3.8,m,443.847600000212,37,word
328,1,M,2,Lentiform Loewenfeld,3.3.8,m,572.8132999999216,37,word
329,0,C,2,Lentiform Loewenfeld,3.3.8,m,379.4544999999925,37,nonword
330,1,C,7,Lentiform Loewenfeld,3.3.8,c,827.5110999998869,37,nonword
331,1,M,6,Lentiform Loewenfeld,3.3.8,m,592.4154000000563,37,word
332,1,C,2,Lentiform Loewenfeld,3.3.8,c,529.0197000000626,37,nonword
333,1,M,4,Lentiform Loewenfeld,3.3.8,m,619.1376999998465,37,word
334,1,C,3,Lentiform Loewenfeld,3.3.8,c,597.5516999998363,37,nonword
335,1,C,4,Lentiform Loewenfeld,3.3.8,c,737.0243000001647,37,nonword
336,1,C,5,Lentiform Loewenfeld,3.3.8,c,567.733799999929,37,nonword
337,0,C,7,Lentiform Loewenfeld,3.3.8,m,511.0520999999717,37,nonword
338,1,M,1,Lentiform Loewenfeld,3.3.8,m,576.1276000000071,37,word
339,0,M,5,Lentiform Loewenfeld,3.3.8,c,633.4627000000328,37,word
340,1,M,3,Lentiform Loewenfeld,3.3.8,m,619.8688000001712,37,word
341,1,M,4,Lentiform Loewenfeld,3.3.8,m,593.2926000001607,37,word
342,1,C,6,Lentiform Loewenfeld,3.3.8,c,611.7657999999356,37,nonword
343,1,C,4,Lentiform Loewenfeld,3.3.8,c,596.181899999734,37,nonword
344,1,M,4,Lentiform Loewenfeld,3.3.8,m,543.9390999998432,37,word
345,1,M,3,Lentiform Loewenfeld,3.3.8,m,450.3839000000153,37,word
346,0,C,2,Lentiform Loewenfeld,3.3.8,m,985.1632999998983,37,nonword
347,1,C,4,Lentiform Loewenfeld,3.3.8,c,580.0650000000605,37,nonword
348,1,M,1,Lentiform Loewenfeld,3.3.8,m,527.4853999997722,37,word
349,1,C,6,Lentiform Loewenfeld,3.3.8,c,554.4024999999674,37,nonword
350,1,M,2,Lentiform Loewenfeld,3.3.8,m,429.1772999999812,37,word
351,1,C,3,Lentiform Loewenfeld,3.3.8,c,565.7616000002017,37,nonword
352,1,M,6,Lentiform Loewenfeld,3.3.8,m,471.5623000001069,37,word
353,1,M,6,Lentiform Loewenfeld,3.3.8,m,403.8185999998823,37,word
354,0,M,3,Lentiform Loewenfeld,3.3.8,c,521.5103000000818,37,word
355,0,M,7,Lentiform Loewenfeld,3.3.8,c,1110.5401000001002,37,word
356,1,C,1,Lentiform Loewenfeld,3.3.8,c,744.0363999999827,37,nonword
357,1,C,6,Lentiform Loewenfeld,3.3.8,c,664.6467000000412,37,nonword
358,1,C,3,Lentiform Loewenfeld,3.3.8,c,482.09069999994244,37,nonword
359,1,M,3,Lentiform Loewenfeld,3.3.8,m,636.847400000086,37,word
360,1,C,6,Lentiform Loewenfeld,3.3.8,c,599.0952999999281,37,nonword
361,1,C,7,Lentiform Loewenfeld,3.3.8,c,561.891900000046,37,nonword
362,1,C,1,Lentiform Loewenfeld,3.3.8,c,636.8203000001376,37,nonword
363,1,M,7,Lentiform Loewenfeld,3.3.8,m,492.90949999995064,37,word
364,1,M,1,Lentiform Loewenfeld,3.3.8,m,446.20570000004955,37,word
365,1,C,2,Lentiform Loewenfeld,3.3.8,c,813.3051999999443,37,nonword
366,1,M,6,Lentiform Loewenfeld,3.3.8,m,413.7406999999657,37,word
367,1,M,4,Lentiform Loewenfeld,3.3.8,m,377.94570000015665,37,word
368,1,M,1,Lentiform Loewenfeld,3.3.8,m,483.7558999999892,37,word
369,1,M,4,Lentiform Loewenfeld,3.3.8,m,356.01210000016727,37,word
370,1,C,6,Lentiform Loewenfeld,3.3.8,c,538.9882999999681,37,nonword
371,0,C,1,Lentiform Loewenfeld,3.3.8,m,791.2666999999201,37,nonword
372,1,M,1,Lentiform Loewenfeld,3.3.8,m,565.8057999998564,37,word
373,1,C,3,Lentiform Loewenfeld,3.3.8,c,569.6208999999799,37,nonword
374,1,C,4,Lentiform Loewenfeld,3.3.8,c,540.8676999999443,37,nonword
375,1,C,2,Lentiform Loewenfeld,3.3.8,c,542.5037000000011,37,nonword
376,0,C,4,Lentiform Loewenfeld,3.3.8,m,515.1088000001619,37,nonword
377,0,M,5,Lentiform Loewenfeld,3.3.8,c,668.671699999948,37,word
378,1,M,2,Lentiform Loewenfeld,3.3.8,m,434.27029999997467,37,word
379,1,C,1,Lentiform Loewenfeld,3.3.8,c,592.9414999999572,37,nonword
380,1,M,7,Lentiform Loewenfeld,3.3.8,m,502.504800000228,37,word
381,1,M,3,Lentiform Loewenfeld,3.3.8,m,476.3157999999821,37,word
382,1,M,5,Lentiform Loewenfeld,3.3.8,m,431.27089999988675,37,word
383,1,C,5,Lentiform Loewenfeld,3.3.8,c,702.1919999998063,37,nonword
384,1,M,2,Lentiform Loewenfeld,3.3.8,m,480.83499999996275,37,word
385,1,C,5,Lentiform Loewenfeld,3.3.8,c,556.7787000001408,37,nonword
386,1,M,5,Lentiform Loewenfeld,3.3.8,m,531.5067000001436,37,word
387,1,C,2,Lentiform Loewenfeld,3.3.8,c,1075.1406999998726,37,nonword
388,1,C,2,Lentiform Loewenfeld,3.3.8,c,773.9738000001526,37,nonword
389,1,C,4,Lentiform Loewenfeld,3.3.8,c,511.2176000000909,37,nonword
390,1,C,5,Lentiform Loewenfeld,3.3.8,c,556.0108000000473,37,nonword
391,1,M,1,Lentiform Loewenfeld,3.3.8,m,481.283400000073,37,word
392,1,M,4,Lentiform Loewenfeld,3.3.8,m,420.419799999916,37,word
393,1,M,7,Lentiform Loewenfeld,3.3.8,m,457.348700000206,37,word
394,1,C,4,Lentiform Loewenfeld,3.3.8,c,644.2963000000454,37,nonword
395,1,C,6,Lentiform Loewenfeld,3.3.8,c,623.9032000000589,37,nonword
396,0,C,2,Lentiform Loewenfeld,3.3.8,m,675.9899000000441,37,nonword
397,1,C,6,Lentiform Loewenfeld,3.3.8,c,703.8781999998027,37,nonword
398,1,M,4,Lentiform Loewenfeld,3.3.8,m,601.4614000000292,37,word
399,1,C,3,Lentiform Loewenfeld,3.3.8,c,663.0611000000499,37,nonword
400,1,M,1,Lentiform Loewenfeld,3.3.8,m,473.1685000001453,37,word
401,1,C,1,Lentiform Loewenfeld,3.3.8,c,615.4505999999819,37,nonword
402,1,C,5,Lentiform Loewenfeld,3.3.8,c,590.0690999998478,37,nonword
403,1,C,2,Lentiform Loewenfeld,3.3.8,c,546.6344000000972,37,nonword
404,1,M,5,Lentiform Loewenfeld,3.3.8,m,674.2949000000954,37,word
405,1,M,7,Lentiform Loewenfeld,3.3.8,m,389.8354000002145,37,word
406,1,M,5,Lentiform Loewenfeld,3.3.8,m,313.341499999864,37,word
407,1,C,2,Lentiform Loewenfeld,3.3.8,c,484.3185999999987,37,nonword
408,1,C,6,Lentiform Loewenfeld,3.3.8,c,483.1040999998804,37,nonword
409,1,C,1,Lentiform Loewenfeld,3.3.8,c,510.01230000006035,37,nonword
410,1,C,1,Lentiform Loewenfeld,3.3.8,c,527.9590999999782,37,nonword
411,1,M,7,Lentiform Loewenfeld,3.3.8,m,506.6930999998003,37,word
412,1,C,3,Lentiform Loewenfeld,3.3.8,c,530.0066000000807,37,nonword
413,1,M,3,Lentiform Loewenfeld,3.3.8,m,509.2974000000395,37,word
414,1,M,1,Lentiform Loewenfeld,3.3.8,m,466.0185999998357,37,word
415,1,C,2,Lentiform Loewenfeld,3.3.8,c,583.1936000001151,37,nonword
416,1,C,4,Lentiform Loewenfeld,3.3.8,c,474.09160000027623,37,nonword
417,1,C,3,Lentiform Loewenfeld,3.3.8,c,439.21539999987,37,nonword
418,1,C,3,Lentiform Loewenfeld,3.3.8,c,484.0164000001969,37,nonword
419,1,M,6,Lentiform Loewenfeld,3.3.8,m,461.61209999991115,37,word
