Unnamed: 0,correct_keyboard_response_1,correct_response,flanker_condition,opensesame_codename,opensesame_version,response_keyboard_response_1,response_time_keyboard_response_1,subject_nr,target_type
0,1,C,5,Lentiform Loewenfeld,3.3.8,c,646.1952000001038,5,nonword
1,1,C,7,Lentiform Loewenfeld,3.3.8,c,465.0480000000389,5,nonword
2,1,C,3,Lentiform Loewenfeld,3.3.8,c,556.9714999999269,5,nonword
3,1,M,4,Lentiform Loewenfeld,3.3.8,m,403.5080999999773,5,word
4,1,M,1,Lentiform Loewenfeld,3.3.8,m,553.085000000021,5,word
5,1,C,1,Lentiform Loewenfeld,3.3.8,c,451.1201000000583,5,nonword
6,0,C,2,Lentiform Loewenfeld,3.3.8,m,452.5261000000173,5,nonword
7,1,M,1,Lentiform Loewenfeld,3.3.8,m,642.7456999999995,5,word
8,1,M,5,Lentiform Loewenfeld,3.3.8,m,488.25169999999343,5,word
9,1,C,2,Lentiform Loewenfeld,3.3.8,c,475.1525000000547,5,nonword
10,1,M,5,Lentiform Loewenfeld,3.3.8,m,484.52799999996205,5,word
11,1,M,3,Lentiform Loewenfeld,3.3.8,m,541.5954999999958,5,word
12,0,M,6,Lentiform Loewenfeld,3.3.8,c,510.5033000000112,5,word
13,1,C,3,Lentiform Loewenfeld,3.3.8,c,515.8438000000024,5,nonword
14,1,M,4,Lentiform Loewenfeld,3.3.8,m,534.0854999999574,5,word
15,0,M,2,Lentiform Loewenfeld,3.3.8,c,664.9832999999344,5,word
16,1,M,7,Lentiform Loewenfeld,3.3.8,m,635.4804000000295,5,word
17,1,M,3,Lentiform Loewenfeld,3.3.8,m,510.8589000000502,5,word
18,1,C,7,Lentiform Loewenfeld,3.3.8,c,566.0622999999032,5,nonword
19,1,C,2,Lentiform Loewenfeld,3.3.8,c,745.4263999999384,5,nonword
20,1,M,1,Lentiform Loewenfeld,3.3.8,m,508.6272999999637,5,word
21,1,M,3,Lentiform Loewenfeld,3.3.8,m,664.5054000000819,5,word
22,1,C,2,Lentiform Loewenfeld,3.3.8,c,561.5395000000135,5,nonword
23,1,C,2,Lentiform Loewenfeld,3.3.8,c,621.5843000000168,5,nonword
24,1,M,3,Lentiform Loewenfeld,3.3.8,m,471.2583000000741,5,word
25,1,C,6,Lentiform Loewenfeld,3.3.8,c,654.3226000000141,5,nonword
26,1,C,3,Lentiform Loewenfeld,3.3.8,c,489.0452000000805,5,nonword
27,1,M,1,Lentiform Loewenfeld,3.3.8,m,480.39550000001327,5,word
28,1,M,2,Lentiform Loewenfeld,3.3.8,m,479.0739000000176,5,word
29,1,C,5,Lentiform Loewenfeld,3.3.8,c,600.8668999999354,5,nonword
30,1,C,6,Lentiform Loewenfeld,3.3.8,c,512.3872000000556,5,nonword
31,1,C,7,Lentiform Loewenfeld,3.3.8,c,529.9410999999964,5,nonword
32,1,M,7,Lentiform Loewenfeld,3.3.8,m,455.8085999999603,5,word
33,1,C,2,Lentiform Loewenfeld,3.3.8,c,488.5873000001011,5,nonword
34,1,C,7,Lentiform Loewenfeld,3.3.8,c,921.6061000000045,5,nonword
35,1,M,1,Lentiform Loewenfeld,3.3.8,m,510.6036000000022,5,word
36,1,M,4,Lentiform Loewenfeld,3.3.8,m,508.9636000000464,5,word
37,1,C,2,Lentiform Loewenfeld,3.3.8,c,541.0525999999663,5,nonword
38,1,M,5,Lentiform Loewenfeld,3.3.8,m,464.60069999992265,5,word
39,1,C,1,Lentiform Loewenfeld,3.3.8,c,420.855899999995,5,nonword
40,1,M,2,Lentiform Loewenfeld,3.3.8,m,506.5533000000869,5,word
41,1,C,4,Lentiform Loewenfeld,3.3.8,c,626.280299999984,5,nonword
42,1,C,7,Lentiform Loewenfeld,3.3.8,c,526.3278999999748,5,nonword
43,1,C,1,Lentiform Loewenfeld,3.3.8,c,503.8719999999157,5,nonword
44,1,C,2,Lentiform Loewenfeld,3.3.8,c,411.0713000000396,5,nonword
45,0,M,4,Lentiform Loewenfeld,3.3.8,c,535.0945000000356,5,word
46,1,M,5,Lentiform Loewenfeld,3.3.8,m,456.695000000007,5,word
47,0,C,5,Lentiform Loewenfeld,3.3.8,m,649.5443999999843,5,nonword
48,1,C,2,Lentiform Loewenfeld,3.3.8,c,608.242600000056,5,nonword
49,1,C,1,Lentiform Loewenfeld,3.3.8,c,490.3061999999627,5,nonword
50,1,C,2,Lentiform Loewenfeld,3.3.8,c,640.7143999999971,5,nonword
51,1,M,3,Lentiform Loewenfeld,3.3.8,m,500.43470000007073,5,word
52,1,C,1,Lentiform Loewenfeld,3.3.8,c,432.3070000000589,5,nonword
53,1,C,1,Lentiform Loewenfeld,3.3.8,c,577.070800000045,5,nonword
54,1,C,1,Lentiform Loewenfeld,3.3.8,c,576.0844999999972,5,nonword
55,1,C,2,Lentiform Loewenfeld,3.3.8,c,653.4876999999397,5,nonword
56,1,M,3,Lentiform Loewenfeld,3.3.8,m,686.0011999999697,5,word
57,1,C,2,Lentiform Loewenfeld,3.3.8,c,459.8586999999534,5,nonword
58,1,C,7,Lentiform Loewenfeld,3.3.8,c,530.9113999999536,5,nonword
59,1,C,7,Lentiform Loewenfeld,3.3.8,c,433.1272000000754,5,nonword
60,1,M,2,Lentiform Loewenfeld,3.3.8,m,748.8835000000545,5,word
61,1,C,3,Lentiform Loewenfeld,3.3.8,c,583.4289999999455,5,nonword
62,1,C,6,Lentiform Loewenfeld,3.3.8,c,549.065600000089,5,nonword
63,1,M,4,Lentiform Loewenfeld,3.3.8,m,751.6103000000585,5,word
64,1,M,7,Lentiform Loewenfeld,3.3.8,m,504.149000000034,5,word
65,1,M,6,Lentiform Loewenfeld,3.3.8,m,478.65360000001965,5,word
66,1,M,2,Lentiform Loewenfeld,3.3.8,m,476.2117000000435,5,word
67,1,C,3,Lentiform Loewenfeld,3.3.8,c,591.7887000000337,5,nonword
68,0,M,6,Lentiform Loewenfeld,3.3.8,c,534.6114999999991,5,word
69,1,M,1,Lentiform Loewenfeld,3.3.8,m,568.998900000006,5,word
70,1,C,6,Lentiform Loewenfeld,3.3.8,c,508.86679999995977,5,nonword
71,1,C,6,Lentiform Loewenfeld,3.3.8,c,454.1064999999362,5,nonword
72,1,M,3,Lentiform Loewenfeld,3.3.8,m,584.4713999999803,5,word
73,0,M,2,Lentiform Loewenfeld,3.3.8,c,591.1757999999681,5,word
74,1,C,4,Lentiform Loewenfeld,3.3.8,c,594.3773999999976,5,nonword
75,1,M,4,Lentiform Loewenfeld,3.3.8,m,514.2126999999164,5,word
76,1,C,7,Lentiform Loewenfeld,3.3.8,c,725.7933999999659,5,nonword
77,1,M,2,Lentiform Loewenfeld,3.3.8,m,651.4598000000115,5,word
78,1,C,4,Lentiform Loewenfeld,3.3.8,c,580.304599999974,5,nonword
79,1,C,4,Lentiform Loewenfeld,3.3.8,c,536.3340000000317,5,nonword
80,1,C,4,Lentiform Loewenfeld,3.3.8,c,529.0505999999004,5,nonword
81,1,C,3,Lentiform Loewenfeld,3.3.8,c,518.7681999999331,5,nonword
82,1,M,3,Lentiform Loewenfeld,3.3.8,m,907.1399000001256,5,word
83,1,C,4,Lentiform Loewenfeld,3.3.8,c,473.9798999999766,5,nonword
84,1,C,5,Lentiform Loewenfeld,3.3.8,c,502.01230000000214,5,nonword
85,1,M,2,Lentiform Loewenfeld,3.3.8,m,509.4008999999496,5,word
86,1,M,1,Lentiform Loewenfeld,3.3.8,m,508.92129999998724,5,word
87,1,M,7,Lentiform Loewenfeld,3.3.8,m,507.04000000009546,5,word
88,1,C,6,Lentiform Loewenfeld,3.3.8,c,545.7116999999853,5,nonword
89,1,M,1,Lentiform Loewenfeld,3.3.8,m,561.4187999999849,5,word
90,1,M,2,Lentiform Loewenfeld,3.3.8,m,632.2613000000129,5,word
91,1,M,5,Lentiform Loewenfeld,3.3.8,m,425.2923000000301,5,word
92,1,M,3,Lentiform Loewenfeld,3.3.8,m,522.1907999999821,5,word
93,1,C,4,Lentiform Loewenfeld,3.3.8,c,433.5592000000179,5,nonword
94,1,C,3,Lentiform Loewenfeld,3.3.8,c,698.5938000000315,5,nonword
95,1,C,2,Lentiform Loewenfeld,3.3.8,c,581.4868999999599,5,nonword
96,1,M,1,Lentiform Loewenfeld,3.3.8,m,487.06480000005104,5,word
97,1,C,4,Lentiform Loewenfeld,3.3.8,c,553.5896999999532,5,nonword
98,1,C,5,Lentiform Loewenfeld,3.3.8,c,489.9388999999501,5,nonword
99,1,M,6,Lentiform Loewenfeld,3.3.8,m,636.9810999999754,5,word
100,1,M,4,Lentiform Loewenfeld,3.3.8,m,502.6891000000178,5,word
101,1,C,4,Lentiform Loewenfeld,3.3.8,c,450.20899999997346,5,nonword
102,1,M,5,Lentiform Loewenfeld,3.3.8,m,500.2987999999896,5,word
103,1,C,5,Lentiform Loewenfeld,3.3.8,c,560.3314000000246,5,nonword
104,1,C,4,Lentiform Loewenfeld,3.3.8,c,578.2140999999829,5,nonword
105,1,M,6,Lentiform Loewenfeld,3.3.8,m,492.57259999995586,5,word
106,1,C,4,Lentiform Loewenfeld,3.3.8,c,423.4234999999171,5,nonword
107,1,M,4,Lentiform Loewenfeld,3.3.8,m,489.49989999993704,5,word
108,1,C,7,Lentiform Loewenfeld,3.3.8,c,580.8833999999915,5,nonword
109,1,M,6,Lentiform Loewenfeld,3.3.8,m,499.2245000000112,5,word
110,1,C,3,Lentiform Loewenfeld,3.3.8,c,480.7857999999542,5,nonword
111,1,C,6,Lentiform Loewenfeld,3.3.8,c,729.4978000000119,5,nonword
112,1,C,7,Lentiform Loewenfeld,3.3.8,c,486.8271000000532,5,nonword
113,1,M,2,Lentiform Loewenfeld,3.3.8,m,476.08559999993304,5,word
114,1,M,7,Lentiform Loewenfeld,3.3.8,m,670.5650000000605,5,word
115,1,M,6,Lentiform Loewenfeld,3.3.8,m,591.2410999999847,5,word
116,1,M,7,Lentiform Loewenfeld,3.3.8,m,464.4307999999728,5,word
117,1,C,7,Lentiform Loewenfeld,3.3.8,c,500.6860999999335,5,nonword
118,1,M,5,Lentiform Loewenfeld,3.3.8,m,542.0244999999413,5,word
119,0,M,7,Lentiform Loewenfeld,3.3.8,c,464.4226999999956,5,word
120,1,M,5,Lentiform Loewenfeld,3.3.8,m,513.1931999999797,5,word
121,1,C,6,Lentiform Loewenfeld,3.3.8,c,566.5213999999687,5,nonword
122,1,C,7,Lentiform Loewenfeld,3.3.8,c,443.20919999998296,5,nonword
123,1,C,1,Lentiform Loewenfeld,3.3.8,c,482.1145999999717,5,nonword
124,0,M,6,Lentiform Loewenfeld,3.3.8,c,480.0369000000064,5,word
125,1,M,1,Lentiform Loewenfeld,3.3.8,m,502.5728999999119,5,word
126,0,C,3,Lentiform Loewenfeld,3.3.8,m,532.645899999945,5,nonword
127,1,M,5,Lentiform Loewenfeld,3.3.8,m,477.49379999993835,5,word
128,1,C,4,Lentiform Loewenfeld,3.3.8,c,498.02450000011595,5,nonword
129,1,M,1,Lentiform Loewenfeld,3.3.8,m,649.0896000000066,5,word
130,0,M,1,Lentiform Loewenfeld,3.3.8,c,523.4908000000287,5,word
131,1,C,1,Lentiform Loewenfeld,3.3.8,c,828.5158999999985,5,nonword
132,1,M,5,Lentiform Loewenfeld,3.3.8,m,443.3281000001007,5,word
133,1,C,5,Lentiform Loewenfeld,3.3.8,c,553.9164999999921,5,nonword
134,1,M,3,Lentiform Loewenfeld,3.3.8,m,510.9651999999769,5,word
135,1,C,7,Lentiform Loewenfeld,3.3.8,c,532.3158999999869,5,nonword
136,1,C,4,Lentiform Loewenfeld,3.3.8,c,592.3747999999323,5,nonword
137,1,C,7,Lentiform Loewenfeld,3.3.8,c,676.9078999999911,5,nonword
138,1,M,1,Lentiform Loewenfeld,3.3.8,m,507.6040000000503,5,word
139,1,C,4,Lentiform Loewenfeld,3.3.8,c,649.1371999999974,5,nonword
140,1,M,1,Lentiform Loewenfeld,3.3.8,m,718.0017000000807,5,word
141,1,M,6,Lentiform Loewenfeld,3.3.8,m,530.6471000000602,5,word
142,1,M,1,Lentiform Loewenfeld,3.3.8,m,647.4027000000933,5,word
143,1,C,1,Lentiform Loewenfeld,3.3.8,c,475.60409999999683,5,nonword
144,1,M,3,Lentiform Loewenfeld,3.3.8,m,635.249700000044,5,word
145,1,C,6,Lentiform Loewenfeld,3.3.8,c,545.2823999999091,5,nonword
146,1,C,1,Lentiform Loewenfeld,3.3.8,c,510.9553999999189,5,nonword
147,1,M,3,Lentiform Loewenfeld,3.3.8,m,670.5223000000115,5,word
148,1,C,6,Lentiform Loewenfeld,3.3.8,c,539.5847999999532,5,nonword
149,1,M,1,Lentiform Loewenfeld,3.3.8,m,532.4097000000183,5,word
150,1,M,1,Lentiform Loewenfeld,3.3.8,m,703.0272999999579,5,word
151,1,M,6,Lentiform Loewenfeld,3.3.8,m,522.6677999999956,5,word
152,1,C,6,Lentiform Loewenfeld,3.3.8,c,507.7097000000067,5,nonword
153,1,M,5,Lentiform Loewenfeld,3.3.8,m,496.594299999997,5,word
154,1,C,2,Lentiform Loewenfeld,3.3.8,c,563.8008999999729,5,nonword
155,1,M,4,Lentiform Loewenfeld,3.3.8,m,466.6844999999739,5,word
156,1,M,1,Lentiform Loewenfeld,3.3.8,m,464.60860000003595,5,word
157,1,C,1,Lentiform Loewenfeld,3.3.8,c,552.343499999959,5,nonword
158,1,M,4,Lentiform Loewenfeld,3.3.8,m,579.0505000000121,5,word
159,0,M,2,Lentiform Loewenfeld,3.3.8,c,813.1503999999841,5,word
160,1,M,5,Lentiform Loewenfeld,3.3.8,m,508.41219999996247,5,word
161,1,M,3,Lentiform Loewenfeld,3.3.8,m,498.2652999998536,5,word
162,1,C,3,Lentiform Loewenfeld,3.3.8,c,479.0217999999295,5,nonword
163,1,C,1,Lentiform Loewenfeld,3.3.8,c,569.6333999998751,5,nonword
164,1,M,3,Lentiform Loewenfeld,3.3.8,m,1036.9418999999762,5,word
165,1,C,1,Lentiform Loewenfeld,3.3.8,c,748.4257000000216,5,nonword
166,1,C,7,Lentiform Loewenfeld,3.3.8,c,499.43270000006305,5,nonword
167,0,M,3,Lentiform Loewenfeld,3.3.8,c,859.9729000001098,5,word
168,1,M,7,Lentiform Loewenfeld,3.3.8,m,494.3078000000678,5,word
169,1,C,3,Lentiform Loewenfeld,3.3.8,c,621.3446999998996,5,nonword
170,1,C,1,Lentiform Loewenfeld,3.3.8,c,548.8015999998897,5,nonword
171,1,M,5,Lentiform Loewenfeld,3.3.8,m,515.894699999888,5,word
172,0,M,7,Lentiform Loewenfeld,3.3.8,c,574.7540999999619,5,word
173,1,M,5,Lentiform Loewenfeld,3.3.8,m,595.7950999999302,5,word
174,1,M,3,Lentiform Loewenfeld,3.3.8,m,632.1971999999951,5,word
175,1,C,2,Lentiform Loewenfeld,3.3.8,c,567.3811999999452,5,nonword
176,1,M,2,Lentiform Loewenfeld,3.3.8,m,530.2132000000565,5,word
177,1,M,5,Lentiform Loewenfeld,3.3.8,m,693.1558000000659,5,word
178,1,C,3,Lentiform Loewenfeld,3.3.8,c,616.6525000000256,5,nonword
179,1,C,1,Lentiform Loewenfeld,3.3.8,c,527.2025999999023,5,nonword
180,1,M,5,Lentiform Loewenfeld,3.3.8,m,582.5636000001105,5,word
181,1,C,4,Lentiform Loewenfeld,3.3.8,c,520.9413000001223,5,nonword
182,1,C,3,Lentiform Loewenfeld,3.3.8,c,510.00760000006994,5,nonword
183,1,M,3,Lentiform Loewenfeld,3.3.8,m,877.7111000000732,5,word
184,1,M,1,Lentiform Loewenfeld,3.3.8,m,501.5261000000173,5,word
185,1,C,2,Lentiform Loewenfeld,3.3.8,c,629.2356999999029,5,nonword
186,1,C,7,Lentiform Loewenfeld,3.3.8,c,813.4193000000087,5,nonword
187,1,C,1,Lentiform Loewenfeld,3.3.8,c,514.9574999999604,5,nonword
188,1,M,5,Lentiform Loewenfeld,3.3.8,m,465.7107000001706,5,word
189,1,C,7,Lentiform Loewenfeld,3.3.8,c,500.42559999990044,5,nonword
190,1,M,6,Lentiform Loewenfeld,3.3.8,m,551.9609000001801,5,word
191,1,M,3,Lentiform Loewenfeld,3.3.8,m,705.2495000002091,5,word
192,1,M,7,Lentiform Loewenfeld,3.3.8,m,449.19169999985024,5,word
193,1,C,7,Lentiform Loewenfeld,3.3.8,c,520.233200000017,5,nonword
194,1,M,3,Lentiform Loewenfeld,3.3.8,m,718.6728000000585,5,word
195,1,M,4,Lentiform Loewenfeld,3.3.8,m,470.8440000001574,5,word
196,1,C,3,Lentiform Loewenfeld,3.3.8,c,595.5655999999726,5,nonword
197,1,C,1,Lentiform Loewenfeld,3.3.8,c,707.2600000000093,5,nonword
198,1,M,7,Lentiform Loewenfeld,3.3.8,m,515.1279999999097,5,word
199,1,C,6,Lentiform Loewenfeld,3.3.8,c,552.3251000000164,5,nonword
200,1,M,3,Lentiform Loewenfeld,3.3.8,m,506.6160000000382,5,word
201,1,C,1,Lentiform Loewenfeld,3.3.8,c,547.9291000000667,5,nonword
202,0,M,6,Lentiform Loewenfeld,3.3.8,c,940.7983999998542,5,word
203,1,M,2,Lentiform Loewenfeld,3.3.8,m,571.4937999999383,5,word
204,1,M,7,Lentiform Loewenfeld,3.3.8,m,544.7927000001073,5,word
205,1,M,4,Lentiform Loewenfeld,3.3.8,m,532.0083000001032,5,word
206,0,C,4,Lentiform Loewenfeld,3.3.8,m,648.0357000000076,5,nonword
207,1,C,3,Lentiform Loewenfeld,3.3.8,c,616.4219999999041,5,nonword
208,1,C,4,Lentiform Loewenfeld,3.3.8,c,742.6279999999097,5,nonword
209,1,C,1,Lentiform Loewenfeld,3.3.8,c,621.6206000000238,5,nonword
210,1,M,1,Lentiform Loewenfeld,3.3.8,m,794.8429000002798,5,word
211,1,M,6,Lentiform Loewenfeld,3.3.8,m,831.5372999999672,5,word
212,0,C,2,Lentiform Loewenfeld,3.3.8,m,871.0463999998756,5,nonword
213,1,M,6,Lentiform Loewenfeld,3.3.8,m,532.5382999998983,5,word
214,1,C,3,Lentiform Loewenfeld,3.3.8,c,649.5973999998532,5,nonword
215,0,C,6,Lentiform Loewenfeld,3.3.8,m,661.7901999996975,5,nonword
216,1,M,7,Lentiform Loewenfeld,3.3.8,m,790.9908999998588,5,word
217,1,M,2,Lentiform Loewenfeld,3.3.8,m,590.5182000000495,5,word
218,1,M,4,Lentiform Loewenfeld,3.3.8,m,566.6133999996819,5,word
219,1,C,1,Lentiform Loewenfeld,3.3.8,c,568.3906999998726,5,nonword
220,1,C,6,Lentiform Loewenfeld,3.3.8,c,562.9693999998271,5,nonword
221,1,M,6,Lentiform Loewenfeld,3.3.8,m,717.5503000002354,5,word
222,1,C,5,Lentiform Loewenfeld,3.3.8,c,690.5206000001635,5,nonword
223,1,M,7,Lentiform Loewenfeld,3.3.8,m,657.5815999999177,5,word
224,1,M,5,Lentiform Loewenfeld,3.3.8,m,489.73199999984354,5,word
225,1,M,2,Lentiform Loewenfeld,3.3.8,m,635.6330999999773,5,word
226,1,M,5,Lentiform Loewenfeld,3.3.8,m,483.1201000001747,5,word
227,1,C,7,Lentiform Loewenfeld,3.3.8,c,793.6910999999382,5,nonword
228,1,C,7,Lentiform Loewenfeld,3.3.8,c,760.8590999997687,5,nonword
229,1,M,7,Lentiform Loewenfeld,3.3.8,m,612.5791999998037,5,word
230,1,M,4,Lentiform Loewenfeld,3.3.8,m,860.084699999541,5,word
231,1,C,4,Lentiform Loewenfeld,3.3.8,c,770.5736999998335,5,nonword
232,1,M,5,Lentiform Loewenfeld,3.3.8,m,500.59820000012405,5,word
233,0,M,2,Lentiform Loewenfeld,3.3.8,c,781.2794000001159,5,word
234,1,M,5,Lentiform Loewenfeld,3.3.8,m,529.5997999999672,5,word
235,1,C,2,Lentiform Loewenfeld,3.3.8,c,498.5724000001792,5,nonword
236,1,M,1,Lentiform Loewenfeld,3.3.8,m,484.2072999998927,5,word
237,1,C,6,Lentiform Loewenfeld,3.3.8,c,685.4432999999262,5,nonword
238,1,C,4,Lentiform Loewenfeld,3.3.8,c,792.6148000000976,5,nonword
239,1,C,5,Lentiform Loewenfeld,3.3.8,c,682.7923999996856,5,nonword
240,1,C,5,Lentiform Loewenfeld,3.3.8,c,507.97910000011325,5,nonword
241,1,M,6,Lentiform Loewenfeld,3.3.8,m,493.8377000002656,5,word
242,1,C,6,Lentiform Loewenfeld,3.3.8,c,523.8879000002053,5,nonword
243,1,M,4,Lentiform Loewenfeld,3.3.8,m,553.4190000002272,5,word
244,1,C,5,Lentiform Loewenfeld,3.3.8,c,454.1830000001937,5,nonword
245,1,C,4,Lentiform Loewenfeld,3.3.8,c,560.2014999997336,5,nonword
246,0,M,6,Lentiform Loewenfeld,3.3.8,c,505.44089999981225,5,word
247,1,M,7,Lentiform Loewenfeld,3.3.8,m,752.1206000000238,5,word
248,1,M,6,Lentiform Loewenfeld,3.3.8,m,585.6649999998044,5,word
249,1,M,2,Lentiform Loewenfeld,3.3.8,m,625.874199999962,5,word
250,1,C,5,Lentiform Loewenfeld,3.3.8,c,872.0109999999404,5,nonword
251,1,C,4,Lentiform Loewenfeld,3.3.8,c,628.8552999999374,5,nonword
252,1,M,7,Lentiform Loewenfeld,3.3.8,m,513.1126999999397,5,word
253,1,M,2,Lentiform Loewenfeld,3.3.8,m,536.8011999998707,5,word
254,1,M,6,Lentiform Loewenfeld,3.3.8,m,518.9792000001762,5,word
255,0,M,4,Lentiform Loewenfeld,3.3.8,c,786.898599999724,5,word
256,1,C,7,Lentiform Loewenfeld,3.3.8,c,723.7242000000551,5,nonword
257,1,C,1,Lentiform Loewenfeld,3.3.8,c,794.4422999997623,5,nonword
258,1,C,3,Lentiform Loewenfeld,3.3.8,c,460.03710000007413,5,nonword
259,1,C,4,Lentiform Loewenfeld,3.3.8,c,709.9681999997701,5,nonword
260,1,M,4,Lentiform Loewenfeld,3.3.8,m,546.8536999998614,5,word
261,1,M,7,Lentiform Loewenfeld,3.3.8,m,693.2916000001132,5,word
262,1,C,2,Lentiform Loewenfeld,3.3.8,c,593.4392999999691,5,nonword
263,1,C,2,Lentiform Loewenfeld,3.3.8,c,697.6207000003196,5,nonword
264,1,M,6,Lentiform Loewenfeld,3.3.8,m,453.1595000002999,5,word
265,1,M,1,Lentiform Loewenfeld,3.3.8,m,511.1928000000771,5,word
266,1,C,3,Lentiform Loewenfeld,3.3.8,c,471.2388000001665,5,nonword
267,1,C,5,Lentiform Loewenfeld,3.3.8,c,584.1271999997552,5,nonword
268,1,M,6,Lentiform Loewenfeld,3.3.8,m,590.8170000000391,5,word
269,0,M,6,Lentiform Loewenfeld,3.3.8,c,479.716199999908,5,word
270,1,C,5,Lentiform Loewenfeld,3.3.8,c,504.40929999994114,5,nonword
271,1,M,1,Lentiform Loewenfeld,3.3.8,m,544.9636999999639,5,word
272,1,C,4,Lentiform Loewenfeld,3.3.8,c,648.3404999997001,5,nonword
273,1,M,6,Lentiform Loewenfeld,3.3.8,m,487.6973999997135,5,word
274,1,M,1,Lentiform Loewenfeld,3.3.8,m,594.9147999996785,5,word
275,1,C,6,Lentiform Loewenfeld,3.3.8,c,502.08140000049025,5,nonword
276,0,C,6,Lentiform Loewenfeld,3.3.8,m,574.6511999999639,5,nonword
277,1,M,2,Lentiform Loewenfeld,3.3.8,m,478.51300000050105,5,word
278,1,C,1,Lentiform Loewenfeld,3.3.8,c,510.2074000001885,5,nonword
279,1,C,7,Lentiform Loewenfeld,3.3.8,c,525.7863000000361,5,nonword
280,1,M,3,Lentiform Loewenfeld,3.3.8,m,558.6736000000965,5,word
281,1,C,5,Lentiform Loewenfeld,3.3.8,c,549.8664000001736,5,nonword
282,1,M,4,Lentiform Loewenfeld,3.3.8,m,601.9035000000149,5,word
283,0,M,5,Lentiform Loewenfeld,3.3.8,c,564.6160999997519,5,word
284,1,C,2,Lentiform Loewenfeld,3.3.8,c,724.1699000000954,5,nonword
285,1,M,2,Lentiform Loewenfeld,3.3.8,m,569.8363000000827,5,word
286,1,M,7,Lentiform Loewenfeld,3.3.8,m,621.1633999999613,5,word
287,1,C,5,Lentiform Loewenfeld,3.3.8,c,643.2112999998499,5,nonword
288,1,C,4,Lentiform Loewenfeld,3.3.8,c,507.5464000001084,5,nonword
289,1,C,3,Lentiform Loewenfeld,3.3.8,c,529.5978000003379,5,nonword
290,1,C,6,Lentiform Loewenfeld,3.3.8,c,624.6212000001688,5,nonword
291,0,M,5,Lentiform Loewenfeld,3.3.8,c,894.8311000003014,5,word
292,1,M,7,Lentiform Loewenfeld,3.3.8,m,585.346400000155,5,word
293,1,M,5,Lentiform Loewenfeld,3.3.8,m,733.7240999999922,5,word
294,1,M,1,Lentiform Loewenfeld,3.3.8,m,821.3915000001434,5,word
295,0,C,1,Lentiform Loewenfeld,3.3.8,m,1049.0693999999203,5,nonword
296,1,C,6,Lentiform Loewenfeld,3.3.8,c,694.0305000001099,5,nonword
297,0,C,7,Lentiform Loewenfeld,3.3.8,m,1085.7156000002287,5,nonword
298,1,M,2,Lentiform Loewenfeld,3.3.8,m,528.1792999997269,5,word
299,0,C,6,Lentiform Loewenfeld,3.3.8,m,641.0677999996115,5,nonword
300,1,C,6,Lentiform Loewenfeld,3.3.8,c,681.7670999998227,5,nonword
301,1,M,5,Lentiform Loewenfeld,3.3.8,m,527.126500000013,5,word
302,1,C,5,Lentiform Loewenfeld,3.3.8,c,540.1537000001408,5,nonword
303,1,M,3,Lentiform Loewenfeld,3.3.8,m,544.8445999999531,5,word
304,1,C,7,Lentiform Loewenfeld,3.3.8,c,573.0213999999687,5,nonword
305,1,C,7,Lentiform Loewenfeld,3.3.8,c,611.8859999999404,5,nonword
306,1,C,1,Lentiform Loewenfeld,3.3.8,c,486.4289000001736,5,nonword
307,1,C,5,Lentiform Loewenfeld,3.3.8,c,602.9561000005342,5,nonword
308,0,M,7,Lentiform Loewenfeld,3.3.8,c,567.040600000415,5,word
309,1,C,7,Lentiform Loewenfeld,3.3.8,c,640.9739999999292,5,nonword
310,0,M,2,Lentiform Loewenfeld,3.3.8,c,610.6341999997385,5,word
311,1,C,6,Lentiform Loewenfeld,3.3.8,c,1035.3181000000332,5,nonword
312,1,C,3,Lentiform Loewenfeld,3.3.8,c,520.8262000000104,5,nonword
313,1,M,1,Lentiform Loewenfeld,3.3.8,m,687.2653999996837,5,word
314,1,M,6,Lentiform Loewenfeld,3.3.8,m,494.54890000028536,5,word
315,1,M,2,Lentiform Loewenfeld,3.3.8,m,432.2860000000801,5,word
316,0,M,3,Lentiform Loewenfeld,3.3.8,c,513.0101000003051,5,word
317,1,C,5,Lentiform Loewenfeld,3.3.8,c,635.1800999999978,5,nonword
318,1,C,5,Lentiform Loewenfeld,3.3.8,c,563.5401999996975,5,nonword
319,1,C,4,Lentiform Loewenfeld,3.3.8,c,550.8720000002068,5,nonword
320,1,M,6,Lentiform Loewenfeld,3.3.8,m,537.780700000003,5,word
321,1,C,1,Lentiform Loewenfeld,3.3.8,c,563.2927000001073,5,nonword
322,1,M,7,Lentiform Loewenfeld,3.3.8,m,528.179999999702,5,word
323,1,C,5,Lentiform Loewenfeld,3.3.8,c,649.035100000212,5,nonword
324,1,C,3,Lentiform Loewenfeld,3.3.8,c,538.7992000000086,5,nonword
325,1,C,3,Lentiform Loewenfeld,3.3.8,c,875.1378000001423,5,nonword
326,1,M,6,Lentiform Loewenfeld,3.3.8,m,529.6062000000384,5,word
327,1,C,5,Lentiform Loewenfeld,3.3.8,c,665.4821000001393,5,nonword
328,1,C,4,Lentiform Loewenfeld,3.3.8,c,669.6793000001926,5,nonword
329,1,M,4,Lentiform Loewenfeld,3.3.8,m,718.7159999997821,5,word
330,1,C,3,Lentiform Loewenfeld,3.3.8,c,571.8819999997504,5,nonword
331,1,M,7,Lentiform Loewenfeld,3.3.8,m,908.7999000002164,5,word
332,0,C,3,Lentiform Loewenfeld,3.3.8,m,661.9314000003505,5,nonword
333,1,M,3,Lentiform Loewenfeld,3.3.8,m,688.6685999997426,5,word
334,0,C,2,Lentiform Loewenfeld,3.3.8,m,859.1515000001527,5,nonword
335,1,M,7,Lentiform Loewenfeld,3.3.8,m,634.6444999999367,5,word
336,1,C,5,Lentiform Loewenfeld,3.3.8,c,692.8175999994855,5,nonword
337,1,M,4,Lentiform Loewenfeld,3.3.8,m,558.3824000004679,5,word
338,1,C,7,Lentiform Loewenfeld,3.3.8,c,548.7750000001397,5,nonword
339,1,M,5,Lentiform Loewenfeld,3.3.8,m,491.9635000000708,5,word
340,1,C,2,Lentiform Loewenfeld,3.3.8,c,568.8501000001561,5,nonword
341,0,M,1,Lentiform Loewenfeld,3.3.8,c,839.0539000001736,5,word
342,0,C,3,Lentiform Loewenfeld,3.3.8,m,606.769799999427,5,nonword
343,1,C,5,Lentiform Loewenfeld,3.3.8,c,615.3181000000332,5,nonword
344,1,C,6,Lentiform Loewenfeld,3.3.8,c,578.9816000000574,5,nonword
345,1,C,2,Lentiform Loewenfeld,3.3.8,c,793.5546999995131,5,nonword
346,1,M,7,Lentiform Loewenfeld,3.3.8,m,518.850000000326,5,word
347,1,M,7,Lentiform Loewenfeld,3.3.8,m,496.221300000092,5,word
348,1,M,1,Lentiform Loewenfeld,3.3.8,m,566.9209000002593,5,word
349,1,C,2,Lentiform Loewenfeld,3.3.8,c,556.8234000001103,5,nonword
350,1,C,6,Lentiform Loewenfeld,3.3.8,c,582.0530999999028,5,nonword
351,1,C,7,Lentiform Loewenfeld,3.3.8,c,518.4136000000872,5,nonword
352,1,M,5,Lentiform Loewenfeld,3.3.8,m,523.6031000001822,5,word
353,0,M,4,Lentiform Loewenfeld,3.3.8,c,674.8008999996819,5,word
354,1,M,3,Lentiform Loewenfeld,3.3.8,m,562.5486000003293,5,word
355,1,C,6,Lentiform Loewenfeld,3.3.8,c,488.415200000396,5,nonword
356,1,M,4,Lentiform Loewenfeld,3.3.8,m,554.1784999999218,5,word
357,1,C,4,Lentiform Loewenfeld,3.3.8,c,520.4831999996677,5,nonword
358,1,M,2,Lentiform Loewenfeld,3.3.8,m,690.3888999999035,5,word
359,1,M,4,Lentiform Loewenfeld,3.3.8,m,440.71020000008866,5,word
360,1,C,2,Lentiform Loewenfeld,3.3.8,c,583.3070000002626,5,nonword
361,1,M,4,Lentiform Loewenfeld,3.3.8,m,527.4739000000991,5,word
362,1,C,1,Lentiform Loewenfeld,3.3.8,c,610.0145999998786,5,nonword
363,1,C,1,Lentiform Loewenfeld,3.3.8,c,485.7357000000775,5,nonword
364,1,C,6,Lentiform Loewenfeld,3.3.8,c,605.0856000001077,5,nonword
365,1,M,3,Lentiform Loewenfeld,3.3.8,m,495.7829999995884,5,word
366,1,M,2,Lentiform Loewenfeld,3.3.8,m,508.4758999994956,5,word
367,1,C,3,Lentiform Loewenfeld,3.3.8,c,521.2258000001311,5,nonword
368,1,C,6,Lentiform Loewenfeld,3.3.8,c,457.4492999999784,5,nonword
369,1,M,4,Lentiform Loewenfeld,3.3.8,m,467.32680000015534,5,word
370,1,M,7,Lentiform Loewenfeld,3.3.8,m,478.8568000001833,5,word
371,0,M,2,Lentiform Loewenfeld,3.3.8,c,543.6171000001486,5,word
372,1,C,5,Lentiform Loewenfeld,3.3.8,c,570.4749999998603,5,nonword
373,1,M,2,Lentiform Loewenfeld,3.3.8,m,541.5441000000574,5,word
374,1,M,4,Lentiform Loewenfeld,3.3.8,m,580.2290000000503,5,word
375,1,M,4,Lentiform Loewenfeld,3.3.8,m,767.5920000001788,5,word
376,1,M,5,Lentiform Loewenfeld,3.3.8,m,468.9849999998696,5,word
377,1,C,5,Lentiform Loewenfeld,3.3.8,c,820.6704000001773,5,nonword
378,1,M,2,Lentiform Loewenfeld,3.3.8,m,533.3632999998517,5,word
379,1,M,6,Lentiform Loewenfeld,3.3.8,m,570.4100999999791,5,word
380,1,M,3,Lentiform Loewenfeld,3.3.8,m,477.7597999998834,5,word
381,1,C,5,Lentiform Loewenfeld,3.3.8,c,708.8192000000272,5,nonword
382,1,M,6,Lentiform Loewenfeld,3.3.8,m,538.8569999998435,5,word
383,1,M,1,Lentiform Loewenfeld,3.3.8,m,658.5847000000067,5,word
384,1,M,2,Lentiform Loewenfeld,3.3.8,m,789.0890999999829,5,word
385,1,C,2,Lentiform Loewenfeld,3.3.8,c,1011.9241000001784,5,nonword
386,1,C,4,Lentiform Loewenfeld,3.3.8,c,548.9080999998841,5,nonword
387,1,M,1,Lentiform Loewenfeld,3.3.8,m,615.2861999997403,5,word
388,1,C,5,Lentiform Loewenfeld,3.3.8,c,680.4892999997828,5,nonword
389,1,C,1,Lentiform Loewenfeld,3.3.8,c,582.3313999997918,5,nonword
390,1,C,6,Lentiform Loewenfeld,3.3.8,c,508.50109999999404,5,nonword
391,1,C,7,Lentiform Loewenfeld,3.3.8,c,458.869499999797,5,nonword
392,1,M,7,Lentiform Loewenfeld,3.3.8,m,651.6207000003196,5,word
393,1,M,3,Lentiform Loewenfeld,3.3.8,m,629.8260000003502,5,word
394,1,M,4,Lentiform Loewenfeld,3.3.8,m,481.21530000003986,5,word
395,1,M,7,Lentiform Loewenfeld,3.3.8,m,432.0826000003144,5,word
396,1,C,4,Lentiform Loewenfeld,3.3.8,c,860.7980000001844,5,nonword
397,1,C,2,Lentiform Loewenfeld,3.3.8,c,671.5563000000548,5,nonword
398,1,M,3,Lentiform Loewenfeld,3.3.8,m,520.3031999999657,5,word
399,0,C,1,Lentiform Loewenfeld,3.3.8,m,572.0690000001341,5,nonword
400,1,M,5,Lentiform Loewenfeld,3.3.8,m,550.1095000002533,5,word
401,1,C,5,Lentiform Loewenfeld,3.3.8,c,617.3561999998055,5,nonword
402,1,C,6,Lentiform Loewenfeld,3.3.8,c,527.9956999996211,5,nonword
403,1,C,3,Lentiform Loewenfeld,3.3.8,c,594.5470999998506,5,nonword
404,1,M,2,Lentiform Loewenfeld,3.3.8,m,530.901999999769,5,word
405,1,C,3,Lentiform Loewenfeld,3.3.8,c,587.7776999999769,5,nonword
406,1,C,3,Lentiform Loewenfeld,3.3.8,c,705.6774000001606,5,nonword
407,1,M,3,Lentiform Loewenfeld,3.3.8,m,569.6617999998853,5,word
408,1,C,2,Lentiform Loewenfeld,3.3.8,c,540.7358999999706,5,nonword
409,1,M,4,Lentiform Loewenfeld,3.3.8,m,577.8090999999549,5,word
410,1,C,3,Lentiform Loewenfeld,3.3.8,c,474.3489999999292,5,nonword
411,1,M,4,Lentiform Loewenfeld,3.3.8,m,521.3845999995247,5,word
412,1,M,6,Lentiform Loewenfeld,3.3.8,m,1046.4045000001788,5,word
413,1,C,2,Lentiform Loewenfeld,3.3.8,c,556.5334000003058,5,nonword
414,1,M,6,Lentiform Loewenfeld,3.3.8,m,471.9005999998189,5,word
415,1,M,7,Lentiform Loewenfeld,3.3.8,m,557.4839999997057,5,word
416,1,C,7,Lentiform Loewenfeld,3.3.8,c,618.8924000002444,5,nonword
417,1,M,5,Lentiform Loewenfeld,3.3.8,m,475.5384999997914,5,word
418,1,C,5,Lentiform Loewenfeld,3.3.8,c,465.96369999996386,5,nonword
419,1,C,4,Lentiform Loewenfeld,3.3.8,c,548.3172999997623,5,nonword
