Unnamed: 0,correct_keyboard_response_1,correct_response,flanker_condition,opensesame_codename,opensesame_version,response_keyboard_response_1,response_time_keyboard_response_1,subject_nr,target_type
0,1,C,2,Lentiform Loewenfeld,3.3.8,c,559.8144000000611,0,nonword
1,0,M,2,Lentiform Loewenfeld,3.3.8,c,684.1846999999543,0,word
2,1,C,1,Lentiform Loewenfeld,3.3.8,c,701.4000000000524,0,nonword
3,1,M,1,Lentiform Loewenfeld,3.3.8,m,618.7294999999867,0,word
4,1,M,5,Lentiform Loewenfeld,3.3.8,m,564.9226000000781,0,word
5,1,C,2,Lentiform Loewenfeld,3.3.8,c,675.964799999987,0,nonword
6,1,C,6,Lentiform Loewenfeld,3.3.8,c,826.1531999999424,0,nonword
7,1,C,6,Lentiform Loewenfeld,3.3.8,c,605.8068999999668,0,nonword
8,1,C,6,Lentiform Loewenfeld,3.3.8,c,697.4279999999562,0,nonword
9,1,M,1,Lentiform Loewenfeld,3.3.8,m,634.3226000000432,0,word
10,0,M,2,Lentiform Loewenfeld,3.3.8,c,789.8947000000044,0,word
11,1,C,5,Lentiform Loewenfeld,3.3.8,c,668.2364999999409,0,nonword
12,1,M,2,Lentiform Loewenfeld,3.3.8,m,592.9159999999683,0,word
13,1,M,7,Lentiform Loewenfeld,3.3.8,m,747.8071000000637,0,word
14,1,C,7,Lentiform Loewenfeld,3.3.8,c,733.835800000088,0,nonword
15,1,C,2,Lentiform Loewenfeld,3.3.8,c,779.1611000000266,0,nonword
16,1,C,7,Lentiform Loewenfeld,3.3.8,c,989.3278000000864,0,nonword
17,1,C,1,Lentiform Loewenfeld,3.3.8,c,839.4803999999713,0,nonword
18,1,M,1,Lentiform Loewenfeld,3.3.8,m,844.6189000000304,0,word
19,1,M,7,Lentiform Loewenfeld,3.3.8,m,631.8188999999838,0,word
20,1,M,4,Lentiform Loewenfeld,3.3.8,m,604.6570000000065,0,word
21,1,C,6,Lentiform Loewenfeld,3.3.8,c,597.2441999999864,0,nonword
22,1,M,6,Lentiform Loewenfeld,3.3.8,m,705.588999999949,0,word
23,1,C,3,Lentiform Loewenfeld,3.3.8,c,671.5802000000258,0,nonword
24,1,C,1,Lentiform Loewenfeld,3.3.8,c,653.9582999999111,0,nonword
25,1,M,2,Lentiform Loewenfeld,3.3.8,m,606.3478999999934,0,word
26,1,M,5,Lentiform Loewenfeld,3.3.8,m,837.7110000000393,0,word
27,1,M,2,Lentiform Loewenfeld,3.3.8,m,602.035499999969,0,word
28,1,C,6,Lentiform Loewenfeld,3.3.8,c,663.5628000000434,0,nonword
29,1,M,2,Lentiform Loewenfeld,3.3.8,m,638.4485999999742,0,word
30,1,M,7,Lentiform Loewenfeld,3.3.8,m,564.4850999999617,0,word
31,1,C,5,Lentiform Loewenfeld,3.3.8,c,618.3763000000617,0,nonword
32,1,C,1,Lentiform Loewenfeld,3.3.8,c,856.6056999999564,0,nonword
33,0,M,4,Lentiform Loewenfeld,3.3.8,c,693.4025000000547,0,word
34,1,M,6,Lentiform Loewenfeld,3.3.8,m,800.3398999999627,0,word
35,1,M,7,Lentiform Loewenfeld,3.3.8,m,558.4083999999857,0,word
36,1,C,5,Lentiform Loewenfeld,3.3.8,c,927.6099000000104,0,nonword
37,1,M,6,Lentiform Loewenfeld,3.3.8,m,712.8061999999627,0,word
38,1,M,3,Lentiform Loewenfeld,3.3.8,m,563.9700999999186,0,word
39,1,C,4,Lentiform Loewenfeld,3.3.8,c,638.184500000003,0,nonword
40,1,C,7,Lentiform Loewenfeld,3.3.8,c,840.533299999981,0,nonword
41,1,C,7,Lentiform Loewenfeld,3.3.8,c,756.6635999999417,0,nonword
42,1,M,6,Lentiform Loewenfeld,3.3.8,m,606.2711999999592,0,word
43,1,M,4,Lentiform Loewenfeld,3.3.8,m,631.0529000000097,0,word
44,1,M,3,Lentiform Loewenfeld,3.3.8,m,726.9405999999435,0,word
45,1,C,2,Lentiform Loewenfeld,3.3.8,c,1040.113799999992,0,nonword
46,1,C,1,Lentiform Loewenfeld,3.3.8,c,646.0386999999755,0,nonword
47,1,M,3,Lentiform Loewenfeld,3.3.8,m,598.1219000000565,0,word
48,1,M,1,Lentiform Loewenfeld,3.3.8,m,621.6270999999833,0,word
49,1,C,4,Lentiform Loewenfeld,3.3.8,c,514.4401999999827,0,nonword
50,1,M,5,Lentiform Loewenfeld,3.3.8,m,825.6775000000198,0,word
51,1,C,4,Lentiform Loewenfeld,3.3.8,c,742.4083000000101,0,nonword
52,1,C,4,Lentiform Loewenfeld,3.3.8,c,663.7458999998926,0,nonword
53,1,M,1,Lentiform Loewenfeld,3.3.8,m,660.1824999999953,0,word
54,1,C,7,Lentiform Loewenfeld,3.3.8,c,610.0261999999057,0,nonword
55,1,C,2,Lentiform Loewenfeld,3.3.8,c,725.243599999987,0,nonword
56,1,C,2,Lentiform Loewenfeld,3.3.8,c,608.820299999963,0,nonword
57,1,M,2,Lentiform Loewenfeld,3.3.8,m,632.1521999999532,0,word
58,1,C,2,Lentiform Loewenfeld,3.3.8,c,682.0265000000363,0,nonword
59,1,M,6,Lentiform Loewenfeld,3.3.8,m,610.3787000000011,0,word
60,0,M,2,Lentiform Loewenfeld,3.3.8,c,799.2818000000552,0,word
61,1,C,2,Lentiform Loewenfeld,3.3.8,c,592.7812999999733,0,nonword
62,1,C,6,Lentiform Loewenfeld,3.3.8,c,950.6807999999728,0,nonword
63,1,C,7,Lentiform Loewenfeld,3.3.8,c,667.3172999999952,0,nonword
64,1,C,6,Lentiform Loewenfeld,3.3.8,c,663.1259999999311,0,nonword
65,1,M,6,Lentiform Loewenfeld,3.3.8,m,589.0093000000925,0,word
66,1,M,7,Lentiform Loewenfeld,3.3.8,m,546.5367000000551,0,word
67,0,C,1,Lentiform Loewenfeld,3.3.8,m,891.2562000000617,0,nonword
68,1,C,5,Lentiform Loewenfeld,3.3.8,c,886.5878999999841,0,nonword
69,0,C,4,Lentiform Loewenfeld,3.3.8,m,864.5531999999657,0,nonword
70,1,M,2,Lentiform Loewenfeld,3.3.8,m,765.4513999999617,0,word
71,1,M,7,Lentiform Loewenfeld,3.3.8,m,593.0579000000143,0,word
72,1,C,2,Lentiform Loewenfeld,3.3.8,c,907.4249999998719,0,nonword
73,1,M,5,Lentiform Loewenfeld,3.3.8,m,588.8845000000438,0,word
74,1,C,6,Lentiform Loewenfeld,3.3.8,c,792.9623999999603,0,nonword
75,1,C,3,Lentiform Loewenfeld,3.3.8,c,853.5981000000029,0,nonword
76,1,C,2,Lentiform Loewenfeld,3.3.8,c,827.1708999999682,0,nonword
77,1,C,7,Lentiform Loewenfeld,3.3.8,c,652.804700000037,0,nonword
78,1,M,4,Lentiform Loewenfeld,3.3.8,m,1045.8267000000342,0,word
79,1,M,4,Lentiform Loewenfeld,3.3.8,m,591.9139000000432,0,word
80,1,M,3,Lentiform Loewenfeld,3.3.8,m,626.6428000000305,0,word
81,1,M,5,Lentiform Loewenfeld,3.3.8,m,608.9621999999508,0,word
82,1,C,2,Lentiform Loewenfeld,3.3.8,c,611.5449999999837,0,nonword
83,0,M,3,Lentiform Loewenfeld,3.3.8,c,908.5716999999131,0,word
84,1,C,6,Lentiform Loewenfeld,3.3.8,c,725.0685999999987,0,nonword
85,1,C,5,Lentiform Loewenfeld,3.3.8,c,940.55349999998,0,nonword
86,1,M,5,Lentiform Loewenfeld,3.3.8,m,777.5450999999885,0,word
87,1,C,1,Lentiform Loewenfeld,3.3.8,c,600.2386999999871,0,nonword
88,1,M,4,Lentiform Loewenfeld,3.3.8,m,773.7810999999638,0,word
89,1,C,4,Lentiform Loewenfeld,3.3.8,c,607.318399999931,0,nonword
90,1,M,1,Lentiform Loewenfeld,3.3.8,m,592.3622999999789,0,word
91,0,C,2,Lentiform Loewenfeld,3.3.8,m,587.3783000000985,0,nonword
92,1,M,7,Lentiform Loewenfeld,3.3.8,m,689.5885999999591,0,word
93,1,M,5,Lentiform Loewenfeld,3.3.8,m,781.2364999999991,0,word
94,1,C,5,Lentiform Loewenfeld,3.3.8,c,787.0534000000334,0,nonword
95,1,C,4,Lentiform Loewenfeld,3.3.8,c,769.0813999999664,0,nonword
96,1,M,6,Lentiform Loewenfeld,3.3.8,m,702.7987999999896,0,word
97,1,C,7,Lentiform Loewenfeld,3.3.8,c,630.4616999999853,0,nonword
98,0,M,6,Lentiform Loewenfeld,3.3.8,c,726.9907999999705,0,word
99,1,C,2,Lentiform Loewenfeld,3.3.8,c,799.5038000000641,0,nonword
100,1,C,2,Lentiform Loewenfeld,3.3.8,c,633.9687999999733,0,nonword
101,1,M,2,Lentiform Loewenfeld,3.3.8,m,853.5314999999828,0,word
102,1,M,7,Lentiform Loewenfeld,3.3.8,m,547.0421000000206,0,word
103,1,M,4,Lentiform Loewenfeld,3.3.8,m,572.4034000000102,0,word
104,1,M,7,Lentiform Loewenfeld,3.3.8,m,583.8068000000785,0,word
105,1,C,3,Lentiform Loewenfeld,3.3.8,c,552.8271999999415,0,nonword
106,1,C,1,Lentiform Loewenfeld,3.3.8,c,637.3787000000011,0,nonword
107,1,M,2,Lentiform Loewenfeld,3.3.8,m,585.8961000000709,0,word
108,1,C,1,Lentiform Loewenfeld,3.3.8,c,580.2375999999931,0,nonword
109,1,C,5,Lentiform Loewenfeld,3.3.8,c,832.310899999924,0,nonword
110,1,C,2,Lentiform Loewenfeld,3.3.8,c,869.1291999999667,0,nonword
111,1,M,2,Lentiform Loewenfeld,3.3.8,m,543.7678000000888,0,word
112,1,C,6,Lentiform Loewenfeld,3.3.8,c,588.5365000000456,0,nonword
113,1,M,5,Lentiform Loewenfeld,3.3.8,m,577.0409999999101,0,word
114,1,C,6,Lentiform Loewenfeld,3.3.8,c,648.951999999932,0,nonword
115,1,M,4,Lentiform Loewenfeld,3.3.8,m,680.8397999999579,0,word
116,1,M,6,Lentiform Loewenfeld,3.3.8,m,606.0082000000402,0,word
117,1,C,5,Lentiform Loewenfeld,3.3.8,c,627.1988999999594,0,nonword
118,1,M,7,Lentiform Loewenfeld,3.3.8,m,535.084600000002,0,word
119,1,M,2,Lentiform Loewenfeld,3.3.8,m,559.1141000000061,0,word
120,1,M,6,Lentiform Loewenfeld,3.3.8,m,627.5565999999526,0,word
121,1,M,1,Lentiform Loewenfeld,3.3.8,m,686.9250000000466,0,word
122,1,C,4,Lentiform Loewenfeld,3.3.8,c,734.8968999999925,0,nonword
123,1,C,4,Lentiform Loewenfeld,3.3.8,c,680.4464000000735,0,nonword
124,1,M,4,Lentiform Loewenfeld,3.3.8,m,569.6235000000452,0,word
125,0,M,1,Lentiform Loewenfeld,3.3.8,c,741.1083999999682,0,word
126,1,C,4,Lentiform Loewenfeld,3.3.8,c,756.8760999998776,0,nonword
127,1,M,4,Lentiform Loewenfeld,3.3.8,m,589.7679999999818,0,word
128,1,C,4,Lentiform Loewenfeld,3.3.8,c,644.4725999999791,0,nonword
129,1,C,2,Lentiform Loewenfeld,3.3.8,c,639.3587000000407,0,nonword
130,1,C,4,Lentiform Loewenfeld,3.3.8,c,714.8555000000051,0,nonword
131,1,C,3,Lentiform Loewenfeld,3.3.8,c,535.249700000044,0,nonword
132,1,M,4,Lentiform Loewenfeld,3.3.8,m,613.3184000000474,0,word
133,1,C,1,Lentiform Loewenfeld,3.3.8,c,709.8558000000194,0,nonword
134,1,M,2,Lentiform Loewenfeld,3.3.8,m,594.1740999999456,0,word
135,1,M,4,Lentiform Loewenfeld,3.3.8,m,728.7777000000933,0,word
136,1,M,2,Lentiform Loewenfeld,3.3.8,m,618.6607000000076,0,word
137,1,M,3,Lentiform Loewenfeld,3.3.8,m,641.1477000000305,0,word
138,1,C,2,Lentiform Loewenfeld,3.3.8,c,767.3595000000205,0,nonword
139,1,M,6,Lentiform Loewenfeld,3.3.8,m,551.5936999999103,0,word
140,1,M,4,Lentiform Loewenfeld,3.3.8,m,610.5956000000588,0,word
141,1,M,1,Lentiform Loewenfeld,3.3.8,m,580.4676999999792,0,word
142,0,M,1,Lentiform Loewenfeld,3.3.8,c,714.468899999978,0,word
143,1,C,3,Lentiform Loewenfeld,3.3.8,c,717.998099999968,0,nonword
144,1,M,4,Lentiform Loewenfeld,3.3.8,m,557.8663000000524,0,word
145,1,C,2,Lentiform Loewenfeld,3.3.8,c,788.4250999999349,0,nonword
146,1,C,6,Lentiform Loewenfeld,3.3.8,c,674.4150999999256,0,nonword
147,1,M,4,Lentiform Loewenfeld,3.3.8,m,741.6470999999437,0,word
148,1,C,1,Lentiform Loewenfeld,3.3.8,c,654.0982000000658,0,nonword
149,1,C,6,Lentiform Loewenfeld,3.3.8,c,812.6141000000644,0,nonword
150,1,M,1,Lentiform Loewenfeld,3.3.8,m,551.6646999999648,0,word
151,1,M,1,Lentiform Loewenfeld,3.3.8,m,551.5285000000731,0,word
152,1,M,2,Lentiform Loewenfeld,3.3.8,m,585.3869999999879,0,word
153,1,C,7,Lentiform Loewenfeld,3.3.8,c,623.2503000000142,0,nonword
154,1,C,5,Lentiform Loewenfeld,3.3.8,c,681.6246999999275,0,nonword
155,1,M,5,Lentiform Loewenfeld,3.3.8,m,547.4711000000825,0,word
156,1,C,7,Lentiform Loewenfeld,3.3.8,c,746.8322000000044,0,nonword
157,1,M,1,Lentiform Loewenfeld,3.3.8,m,482.5085000000545,0,word
158,1,C,1,Lentiform Loewenfeld,3.3.8,c,584.913499999966,0,nonword
159,1,M,7,Lentiform Loewenfeld,3.3.8,m,637.4162999999244,0,word
160,1,M,2,Lentiform Loewenfeld,3.3.8,m,567.8057000000263,0,word
161,1,M,7,Lentiform Loewenfeld,3.3.8,m,562.5051000000094,0,word
162,1,C,3,Lentiform Loewenfeld,3.3.8,c,549.5683000000427,0,nonword
163,1,M,3,Lentiform Loewenfeld,3.3.8,m,519.7966000000015,0,word
164,1,C,4,Lentiform Loewenfeld,3.3.8,c,676.00900000002,0,nonword
165,1,C,3,Lentiform Loewenfeld,3.3.8,c,762.0450999999302,0,nonword
166,1,C,3,Lentiform Loewenfeld,3.3.8,c,851.2035999999498,0,nonword
167,1,C,3,Lentiform Loewenfeld,3.3.8,c,571.5584000000963,0,nonword
168,1,M,3,Lentiform Loewenfeld,3.3.8,m,633.3835000001127,0,word
169,1,M,1,Lentiform Loewenfeld,3.3.8,m,563.446200000064,0,word
170,1,M,5,Lentiform Loewenfeld,3.3.8,m,624.8166000000201,0,word
171,1,C,4,Lentiform Loewenfeld,3.3.8,c,777.0144999999902,0,nonword
172,1,C,6,Lentiform Loewenfeld,3.3.8,c,821.3881000000401,0,nonword
173,1,C,7,Lentiform Loewenfeld,3.3.8,c,694.3865000000224,0,nonword
174,1,M,7,Lentiform Loewenfeld,3.3.8,m,582.9335999998148,0,word
175,1,M,3,Lentiform Loewenfeld,3.3.8,m,558.1442999999854,0,word
176,1,M,2,Lentiform Loewenfeld,3.3.8,m,626.5274999999674,0,word
177,1,M,1,Lentiform Loewenfeld,3.3.8,m,741.2029000000912,0,word
178,1,C,4,Lentiform Loewenfeld,3.3.8,c,1278.764199999976,0,nonword
179,1,M,3,Lentiform Loewenfeld,3.3.8,m,608.0128000000259,0,word
180,1,M,4,Lentiform Loewenfeld,3.3.8,m,873.6940999998478,0,word
181,1,M,5,Lentiform Loewenfeld,3.3.8,m,480.06260000006296,0,word
182,1,C,7,Lentiform Loewenfeld,3.3.8,c,657.9416000001365,0,nonword
183,1,M,6,Lentiform Loewenfeld,3.3.8,m,596.4746999999043,0,word
184,1,M,2,Lentiform Loewenfeld,3.3.8,m,658.3021999999182,0,word
185,1,C,1,Lentiform Loewenfeld,3.3.8,c,865.6366000000853,0,nonword
186,1,M,3,Lentiform Loewenfeld,3.3.8,m,584.963799999794,0,word
187,1,C,3,Lentiform Loewenfeld,3.3.8,c,635.3463999999221,0,nonword
188,1,C,3,Lentiform Loewenfeld,3.3.8,c,731.215899999952,0,nonword
189,1,C,5,Lentiform Loewenfeld,3.3.8,c,597.7197999999626,0,nonword
190,1,C,4,Lentiform Loewenfeld,3.3.8,c,685.7565999999642,0,nonword
191,1,M,4,Lentiform Loewenfeld,3.3.8,m,694.480799999903,0,word
192,1,M,5,Lentiform Loewenfeld,3.3.8,m,559.4780000000028,0,word
193,1,M,3,Lentiform Loewenfeld,3.3.8,m,549.5139999999665,0,word
194,1,C,7,Lentiform Loewenfeld,3.3.8,c,872.2123000001302,0,nonword
195,1,M,2,Lentiform Loewenfeld,3.3.8,m,589.8549999997485,0,word
196,1,C,1,Lentiform Loewenfeld,3.3.8,c,646.8717000001343,0,nonword
197,1,M,7,Lentiform Loewenfeld,3.3.8,m,831.8914999999106,0,word
198,0,C,6,Lentiform Loewenfeld,3.3.8,m,620.7136999998474,0,nonword
199,1,C,6,Lentiform Loewenfeld,3.3.8,c,641.4039000000339,0,nonword
200,1,C,7,Lentiform Loewenfeld,3.3.8,c,658.4688000001479,0,nonword
201,1,C,5,Lentiform Loewenfeld,3.3.8,c,658.8297000002349,0,nonword
202,1,M,1,Lentiform Loewenfeld,3.3.8,m,754.1393000000389,0,word
203,1,C,6,Lentiform Loewenfeld,3.3.8,c,653.4973999999929,0,nonword
204,0,C,1,Lentiform Loewenfeld,3.3.8,m,676.5704999999143,0,nonword
205,1,M,3,Lentiform Loewenfeld,3.3.8,m,651.515999999945,0,word
206,0,M,7,Lentiform Loewenfeld,3.3.8,c,775.0574999998789,0,word
207,1,M,3,Lentiform Loewenfeld,3.3.8,m,568.4118999999482,0,word
208,1,C,1,Lentiform Loewenfeld,3.3.8,c,654.5581999999704,0,nonword
209,0,M,7,Lentiform Loewenfeld,3.3.8,c,1134.4170000001322,0,word
210,1,M,6,Lentiform Loewenfeld,3.3.8,m,741.5176000001375,0,word
211,1,C,4,Lentiform Loewenfeld,3.3.8,c,697.0262999999104,0,nonword
212,1,C,7,Lentiform Loewenfeld,3.3.8,c,599.7013000000734,0,nonword
213,1,M,6,Lentiform Loewenfeld,3.3.8,m,589.6071999999695,0,word
214,1,M,3,Lentiform Loewenfeld,3.3.8,m,553.1360000001732,0,word
215,1,C,1,Lentiform Loewenfeld,3.3.8,c,620.4982000000309,0,nonword
216,1,M,6,Lentiform Loewenfeld,3.3.8,m,519.202299999888,0,word
217,1,C,4,Lentiform Loewenfeld,3.3.8,c,582.2396000000881,0,nonword
218,1,M,2,Lentiform Loewenfeld,3.3.8,m,550.5753000000259,0,word
219,1,M,6,Lentiform Loewenfeld,3.3.8,m,603.7021000001114,0,word
220,1,M,7,Lentiform Loewenfeld,3.3.8,m,605.0484999999171,0,word
221,1,M,5,Lentiform Loewenfeld,3.3.8,m,529.0808999999426,0,word
222,1,C,2,Lentiform Loewenfeld,3.3.8,c,673.614800000214,0,nonword
223,1,C,3,Lentiform Loewenfeld,3.3.8,c,659.7714000000851,0,nonword
224,1,M,4,Lentiform Loewenfeld,3.3.8,m,515.6207000000868,0,word
225,1,C,4,Lentiform Loewenfeld,3.3.8,c,571.8133999999845,0,nonword
226,1,C,5,Lentiform Loewenfeld,3.3.8,c,594.7118000000482,0,nonword
227,1,M,6,Lentiform Loewenfeld,3.3.8,m,645.377800000133,0,word
228,1,C,5,Lentiform Loewenfeld,3.3.8,c,626.9495000001043,0,nonword
229,1,C,4,Lentiform Loewenfeld,3.3.8,c,558.625900000101,0,nonword
230,1,C,5,Lentiform Loewenfeld,3.3.8,c,665.409300000174,0,nonword
231,1,M,7,Lentiform Loewenfeld,3.3.8,m,572.20550000004,0,word
232,1,C,7,Lentiform Loewenfeld,3.3.8,c,630.9048000000184,0,nonword
233,1,C,3,Lentiform Loewenfeld,3.3.8,c,635.4723999999696,0,nonword
234,1,C,4,Lentiform Loewenfeld,3.3.8,c,729.0228000000352,0,nonword
235,1,C,6,Lentiform Loewenfeld,3.3.8,c,852.0366999999387,0,nonword
236,1,M,2,Lentiform Loewenfeld,3.3.8,m,590.4089000000386,0,word
237,1,C,6,Lentiform Loewenfeld,3.3.8,c,972.8993000000482,0,nonword
238,1,C,5,Lentiform Loewenfeld,3.3.8,c,723.3807999999262,0,nonword
239,1,C,7,Lentiform Loewenfeld,3.3.8,c,658.7441000001272,0,nonword
240,0,M,5,Lentiform Loewenfeld,3.3.8,c,897.1191000000108,0,word
241,1,M,6,Lentiform Loewenfeld,3.3.8,m,751.8371999998344,0,word
242,1,C,2,Lentiform Loewenfeld,3.3.8,c,627.9527999998536,0,nonword
243,1,M,1,Lentiform Loewenfeld,3.3.8,m,698.5338999999221,0,word
244,1,C,1,Lentiform Loewenfeld,3.3.8,c,605.3726000001188,0,nonword
245,1,C,3,Lentiform Loewenfeld,3.3.8,c,796.9346000001533,0,nonword
246,1,M,5,Lentiform Loewenfeld,3.3.8,m,584.2675999999046,0,word
247,1,C,6,Lentiform Loewenfeld,3.3.8,c,604.6044999998994,0,nonword
248,1,C,3,Lentiform Loewenfeld,3.3.8,c,637.3464999997523,0,nonword
249,1,C,7,Lentiform Loewenfeld,3.3.8,c,733.6907999998657,0,nonword
250,1,M,6,Lentiform Loewenfeld,3.3.8,m,791.2447000000393,0,word
251,1,C,1,Lentiform Loewenfeld,3.3.8,c,568.0839000000851,0,nonword
252,1,M,4,Lentiform Loewenfeld,3.3.8,m,557.8575000001583,0,word
253,1,M,5,Lentiform Loewenfeld,3.3.8,m,623.6633000000147,0,word
254,1,M,1,Lentiform Loewenfeld,3.3.8,m,586.420299999998,0,word
255,1,C,3,Lentiform Loewenfeld,3.3.8,c,622.9795000001322,0,nonword
256,0,M,4,Lentiform Loewenfeld,3.3.8,c,714.6199000000488,0,word
257,1,C,3,Lentiform Loewenfeld,3.3.8,c,693.8021999999182,0,nonword
258,1,M,6,Lentiform Loewenfeld,3.3.8,m,514.9812999999849,0,word
259,1,C,6,Lentiform Loewenfeld,3.3.8,c,727.5275000000838,0,nonword
260,1,M,4,Lentiform Loewenfeld,3.3.8,m,683.7024999998976,0,word
261,1,C,2,Lentiform Loewenfeld,3.3.8,c,692.5448999998625,0,nonword
262,1,C,5,Lentiform Loewenfeld,3.3.8,c,623.4018000001088,0,nonword
263,1,C,1,Lentiform Loewenfeld,3.3.8,c,558.6273999998812,0,nonword
264,0,M,2,Lentiform Loewenfeld,3.3.8,c,525.2089999997988,0,word
265,1,M,4,Lentiform Loewenfeld,3.3.8,m,567.1966999999713,0,word
266,1,C,4,Lentiform Loewenfeld,3.3.8,c,746.9078999998746,0,nonword
267,1,M,5,Lentiform Loewenfeld,3.3.8,m,606.5815999999177,0,word
268,1,C,6,Lentiform Loewenfeld,3.3.8,c,1417.3196000000462,0,nonword
269,0,C,5,Lentiform Loewenfeld,3.3.8,m,739.9043999999994,0,nonword
270,1,C,3,Lentiform Loewenfeld,3.3.8,c,889.4117999998853,0,nonword
271,1,C,5,Lentiform Loewenfeld,3.3.8,c,1142.8791999998502,0,nonword
272,1,M,5,Lentiform Loewenfeld,3.3.8,m,611.483799999929,0,word
273,1,C,6,Lentiform Loewenfeld,3.3.8,c,784.5210000001825,0,nonword
274,1,M,4,Lentiform Loewenfeld,3.3.8,m,637.0232000001706,0,word
275,1,C,1,Lentiform Loewenfeld,3.3.8,c,859.5479999999516,0,nonword
276,1,M,3,Lentiform Loewenfeld,3.3.8,m,893.8944999998203,0,word
277,1,M,3,Lentiform Loewenfeld,3.3.8,m,652.5773000000045,0,word
278,1,C,2,Lentiform Loewenfeld,3.3.8,c,1039.3959999998333,0,nonword
279,0,C,5,Lentiform Loewenfeld,3.3.8,m,813.0407000000123,0,nonword
280,1,C,2,Lentiform Loewenfeld,3.3.8,c,1021.0751999999629,0,nonword
281,1,M,1,Lentiform Loewenfeld,3.3.8,m,570.6796999998624,0,word
282,0,C,7,Lentiform Loewenfeld,3.3.8,m,642.7345000001369,0,nonword
283,1,C,3,Lentiform Loewenfeld,3.3.8,c,811.0944000001764,0,nonword
284,1,M,7,Lentiform Loewenfeld,3.3.8,m,703.283400000073,0,word
285,1,C,4,Lentiform Loewenfeld,3.3.8,c,826.4464000000153,0,nonword
286,1,C,1,Lentiform Loewenfeld,3.3.8,c,593.5180999998702,0,nonword
287,1,C,1,Lentiform Loewenfeld,3.3.8,c,797.5034000000451,0,nonword
288,1,C,3,Lentiform Loewenfeld,3.3.8,c,655.1300000001211,0,nonword
289,1,M,2,Lentiform Loewenfeld,3.3.8,m,687.0321999997832,0,word
290,1,M,3,Lentiform Loewenfeld,3.3.8,m,552.5864000000292,0,word
291,1,M,5,Lentiform Loewenfeld,3.3.8,m,496.0900000000838,0,word
292,1,M,3,Lentiform Loewenfeld,3.3.8,m,811.6205999999074,0,word
293,1,C,1,Lentiform Loewenfeld,3.3.8,c,695.453300000052,0,nonword
294,1,M,5,Lentiform Loewenfeld,3.3.8,m,595.6939000000712,0,word
295,0,M,3,Lentiform Loewenfeld,3.3.8,c,776.521600000211,0,word
296,1,M,1,Lentiform Loewenfeld,3.3.8,m,706.8905999998096,0,word
297,1,C,4,Lentiform Loewenfeld,3.3.8,c,795.704000000027,0,nonword
298,1,M,7,Lentiform Loewenfeld,3.3.8,m,631.5567999999039,0,word
299,1,C,4,Lentiform Loewenfeld,3.3.8,c,726.7858000000706,0,nonword
300,1,M,5,Lentiform Loewenfeld,3.3.8,m,621.5697000002256,0,word
301,1,M,1,Lentiform Loewenfeld,3.3.8,m,557.9764999998733,0,word
302,1,C,5,Lentiform Loewenfeld,3.3.8,c,703.7781999999424,0,nonword
303,1,M,6,Lentiform Loewenfeld,3.3.8,m,678.7329000000609,0,word
304,1,M,5,Lentiform Loewenfeld,3.3.8,m,707.2434000000358,0,word
305,1,M,4,Lentiform Loewenfeld,3.3.8,m,580.0702000000747,0,word
306,1,M,2,Lentiform Loewenfeld,3.3.8,m,787.0912000000244,0,word
307,1,C,6,Lentiform Loewenfeld,3.3.8,c,631.9460000001127,0,nonword
308,1,M,5,Lentiform Loewenfeld,3.3.8,m,569.0881999999983,0,word
309,1,C,1,Lentiform Loewenfeld,3.3.8,c,996.2286999999778,0,nonword
310,1,M,6,Lentiform Loewenfeld,3.3.8,m,764.3225000001257,0,word
311,1,C,1,Lentiform Loewenfeld,3.3.8,c,737.0289000001503,0,nonword
312,1,C,5,Lentiform Loewenfeld,3.3.8,c,761.4869999998482,0,nonword
313,1,C,4,Lentiform Loewenfeld,3.3.8,c,746.7720999999437,0,nonword
314,1,C,5,Lentiform Loewenfeld,3.3.8,c,753.7132000001147,0,nonword
315,1,M,5,Lentiform Loewenfeld,3.3.8,m,609.8862999998964,0,word
316,1,M,7,Lentiform Loewenfeld,3.3.8,m,625.4455000000307,0,word
317,0,M,7,Lentiform Loewenfeld,3.3.8,c,1503.0072000001092,0,word
318,1,C,7,Lentiform Loewenfeld,3.3.8,c,756.2217999999411,0,nonword
319,1,M,1,Lentiform Loewenfeld,3.3.8,m,784.8890000001993,0,word
320,1,C,3,Lentiform Loewenfeld,3.3.8,c,590.8997999998974,0,nonword
321,1,M,7,Lentiform Loewenfeld,3.3.8,m,574.4420999998692,0,word
322,1,M,3,Lentiform Loewenfeld,3.3.8,m,555.9943999998504,0,word
323,1,C,7,Lentiform Loewenfeld,3.3.8,c,667.6896999998717,0,nonword
324,1,C,4,Lentiform Loewenfeld,3.3.8,c,596.7200000002049,0,nonword
325,1,C,5,Lentiform Loewenfeld,3.3.8,c,597.7575999998953,0,nonword
326,1,C,4,Lentiform Loewenfeld,3.3.8,c,705.4590999999782,0,nonword
327,1,M,4,Lentiform Loewenfeld,3.3.8,m,646.2743999998784,0,word
328,1,C,7,Lentiform Loewenfeld,3.3.8,c,752.5148000001209,0,nonword
329,1,M,7,Lentiform Loewenfeld,3.3.8,m,626.3499000000302,0,word
330,1,M,4,Lentiform Loewenfeld,3.3.8,m,934.3699000000488,0,word
331,1,C,5,Lentiform Loewenfeld,3.3.8,c,755.2184000000125,0,nonword
332,0,C,6,Lentiform Loewenfeld,3.3.8,m,619.702699999907,0,nonword
333,1,M,5,Lentiform Loewenfeld,3.3.8,m,551.3745999998646,0,word
334,1,M,5,Lentiform Loewenfeld,3.3.8,m,665.2273000001442,0,word
335,1,M,6,Lentiform Loewenfeld,3.3.8,m,1245.9340000000084,0,word
336,1,C,2,Lentiform Loewenfeld,3.3.8,c,855.7600000000093,0,nonword
337,1,M,3,Lentiform Loewenfeld,3.3.8,m,520.4341000000713,0,word
338,1,M,1,Lentiform Loewenfeld,3.3.8,m,808.1842000000179,0,word
339,1,C,6,Lentiform Loewenfeld,3.3.8,c,754.0989000000991,0,nonword
340,1,C,1,Lentiform Loewenfeld,3.3.8,c,589.453600000008,0,nonword
341,1,C,6,Lentiform Loewenfeld,3.3.8,c,603.6698000001488,0,nonword
342,1,C,7,Lentiform Loewenfeld,3.3.8,c,525.3630000001285,0,nonword
343,1,M,4,Lentiform Loewenfeld,3.3.8,m,562.423400000087,0,word
344,1,M,3,Lentiform Loewenfeld,3.3.8,m,767.4597000001231,0,word
345,1,M,4,Lentiform Loewenfeld,3.3.8,m,914.2987000001594,0,word
346,1,M,1,Lentiform Loewenfeld,3.3.8,m,566.0831999999937,0,word
347,1,C,3,Lentiform Loewenfeld,3.3.8,c,632.6929000000237,0,nonword
348,1,C,5,Lentiform Loewenfeld,3.3.8,c,799.9115999999922,0,nonword
349,1,C,7,Lentiform Loewenfeld,3.3.8,c,753.5747000001138,0,nonword
350,1,M,6,Lentiform Loewenfeld,3.3.8,m,586.0281000002287,0,word
351,1,M,3,Lentiform Loewenfeld,3.3.8,m,567.5905999999959,0,word
352,1,C,2,Lentiform Loewenfeld,3.3.8,c,718.9446000001626,0,nonword
353,1,C,2,Lentiform Loewenfeld,3.3.8,c,605.469000000041,0,nonword
354,0,C,1,Lentiform Loewenfeld,3.3.8,m,653.8454000001075,0,nonword
355,1,C,2,Lentiform Loewenfeld,3.3.8,c,1016.8609000002034,0,nonword
356,1,M,7,Lentiform Loewenfeld,3.3.8,m,601.9634000000078,0,word
357,1,M,3,Lentiform Loewenfeld,3.3.8,m,644.8494000000646,0,word
358,1,C,1,Lentiform Loewenfeld,3.3.8,c,541.8924999997253,0,nonword
359,1,C,3,Lentiform Loewenfeld,3.3.8,c,591.765699999989,0,nonword
360,1,C,5,Lentiform Loewenfeld,3.3.8,c,825.295199999935,0,nonword
361,1,M,5,Lentiform Loewenfeld,3.3.8,m,594.3077000000048,0,word
362,1,C,4,Lentiform Loewenfeld,3.3.8,c,750.3866000000853,0,nonword
363,1,M,3,Lentiform Loewenfeld,3.3.8,m,631.9167000000598,0,word
364,1,C,3,Lentiform Loewenfeld,3.3.8,c,650.9616999998689,0,nonword
365,1,C,6,Lentiform Loewenfeld,3.3.8,c,636.0900000000838,0,nonword
366,1,C,3,Lentiform Loewenfeld,3.3.8,c,754.1607999999542,0,nonword
367,1,M,5,Lentiform Loewenfeld,3.3.8,m,586.3686000001617,0,word
368,1,M,4,Lentiform Loewenfeld,3.3.8,m,610.5449999999255,0,word
369,1,M,6,Lentiform Loewenfeld,3.3.8,m,549.9176999999909,0,word
370,0,M,7,Lentiform Loewenfeld,3.3.8,c,741.6205999999074,0,word
371,1,C,5,Lentiform Loewenfeld,3.3.8,c,689.5914999999804,0,nonword
372,1,M,3,Lentiform Loewenfeld,3.3.8,m,666.4567999999272,0,word
373,1,M,2,Lentiform Loewenfeld,3.3.8,m,571.8034999999218,0,word
374,1,C,7,Lentiform Loewenfeld,3.3.8,c,602.1976000000723,0,nonword
375,1,C,3,Lentiform Loewenfeld,3.3.8,c,520.0564000001177,0,nonword
376,1,C,6,Lentiform Loewenfeld,3.3.8,c,539.9277000000002,0,nonword
377,1,C,5,Lentiform Loewenfeld,3.3.8,c,481.95610000006855,0,nonword
378,1,M,2,Lentiform Loewenfeld,3.3.8,m,715.1644000001252,0,word
379,1,M,6,Lentiform Loewenfeld,3.3.8,m,528.703199999989,0,word
380,1,M,2,Lentiform Loewenfeld,3.3.8,m,922.6629999999423,0,word
381,1,C,7,Lentiform Loewenfeld,3.3.8,c,614.9144000000088,0,nonword
382,1,M,3,Lentiform Loewenfeld,3.3.8,m,628.0957999997772,0,word
383,1,M,6,Lentiform Loewenfeld,3.3.8,m,550.0798000001814,0,word
384,1,M,6,Lentiform Loewenfeld,3.3.8,m,496.7894999999553,0,word
385,1,M,1,Lentiform Loewenfeld,3.3.8,m,547.8248999998905,0,word
386,1,C,6,Lentiform Loewenfeld,3.3.8,c,539.1207999999169,0,nonword
387,1,C,3,Lentiform Loewenfeld,3.3.8,c,702.814000000013,0,nonword
388,1,C,3,Lentiform Loewenfeld,3.3.8,c,640.68880000012,0,nonword
389,1,M,1,Lentiform Loewenfeld,3.3.8,m,576.4983999996912,0,word
390,1,M,1,Lentiform Loewenfeld,3.3.8,m,581.2229999999981,0,word
391,1,C,5,Lentiform Loewenfeld,3.3.8,c,669.9094999998342,0,nonword
392,1,M,6,Lentiform Loewenfeld,3.3.8,m,604.2901000001002,0,word
393,1,M,7,Lentiform Loewenfeld,3.3.8,m,841.4761999999173,0,word
394,1,M,3,Lentiform Loewenfeld,3.3.8,m,498.80159999988973,0,word
395,1,M,1,Lentiform Loewenfeld,3.3.8,m,496.17519999993965,0,word
396,1,C,3,Lentiform Loewenfeld,3.3.8,c,638.3081000000238,0,nonword
397,0,M,4,Lentiform Loewenfeld,3.3.8,c,751.4546000002883,0,word
398,1,C,1,Lentiform Loewenfeld,3.3.8,c,1282.8281999998726,0,nonword
399,0,C,3,Lentiform Loewenfeld,3.3.8,m,529.4161999998614,0,nonword
400,1,M,5,Lentiform Loewenfeld,3.3.8,m,884.4912000000477,0,word
401,1,M,3,Lentiform Loewenfeld,3.3.8,m,480.97320000012405,0,word
402,1,C,5,Lentiform Loewenfeld,3.3.8,c,614.1634000001941,0,nonword
403,1,C,7,Lentiform Loewenfeld,3.3.8,c,827.442600000184,0,nonword
404,1,M,7,Lentiform Loewenfeld,3.3.8,m,589.4324000000488,0,word
405,0,M,1,Lentiform Loewenfeld,3.3.8,c,1076.6393999997526,0,word
406,0,C,2,Lentiform Loewenfeld,3.3.8,m,783.6079000001773,0,nonword
407,1,M,7,Lentiform Loewenfeld,3.3.8,m,587.3189000000712,0,word
408,1,C,2,Lentiform Loewenfeld,3.3.8,c,589.2046000000555,0,nonword
409,1,M,6,Lentiform Loewenfeld,3.3.8,m,478.2257999998983,0,word
410,1,C,7,Lentiform Loewenfeld,3.3.8,c,588.438000000082,0,nonword
411,1,C,4,Lentiform Loewenfeld,3.3.8,c,740.4778999998234,0,nonword
412,1,C,7,Lentiform Loewenfeld,3.3.8,c,840.5234000000637,0,nonword
413,1,C,2,Lentiform Loewenfeld,3.3.8,c,619.4672000000719,0,nonword
414,1,M,2,Lentiform Loewenfeld,3.3.8,m,528.8349999999627,0,word
415,1,C,7,Lentiform Loewenfeld,3.3.8,c,510.9263000001665,0,nonword
416,1,M,1,Lentiform Loewenfeld,3.3.8,m,664.8225000000093,0,word
417,1,M,7,Lentiform Loewenfeld,3.3.8,m,841.3460999999661,0,word
418,1,M,5,Lentiform Loewenfeld,3.3.8,m,568.1579000002239,0,word
419,1,M,2,Lentiform Loewenfeld,3.3.8,m,487.9983999996912,0,word
