Unnamed: 0,correct_keyboard_response_1,correct_response,flanker_condition,opensesame_codename,opensesame_version,response_keyboard_response_1,response_time_keyboard_response_1,subject_nr,target_type
0,1,C,4,Lentiform Loewenfeld,3.3.8,c,805.6190999999817,2,nonword
1,1,M,5,Lentiform Loewenfeld,3.3.8,m,669.1697000000277,2,word
2,1,M,1,Lentiform Loewenfeld,3.3.8,m,1109.587400000135,2,word
3,1,M,3,Lentiform Loewenfeld,3.3.8,m,704.804899999901,2,word
4,1,M,7,Lentiform Loewenfeld,3.3.8,m,929.5819000000192,2,word
5,0,C,1,Lentiform Loewenfeld,3.3.8,m,1230.9643000000217,2,nonword
6,1,C,1,Lentiform Loewenfeld,3.3.8,c,729.4510000000591,2,nonword
7,0,C,6,Lentiform Loewenfeld,3.3.8,m,480.9234999999171,2,nonword
8,1,C,6,Lentiform Loewenfeld,3.3.8,c,853.8964999999152,2,nonword
9,1,M,3,Lentiform Loewenfeld,3.3.8,m,1229.935900000011,2,word
10,1,M,3,Lentiform Loewenfeld,3.3.8,m,656.6620999998704,2,word
11,1,C,6,Lentiform Loewenfeld,3.3.8,c,929.0542000000132,2,nonword
12,1,C,5,Lentiform Loewenfeld,3.3.8,c,1215.7848000000813,2,nonword
13,1,M,1,Lentiform Loewenfeld,3.3.8,m,824.9612999999663,2,word
14,1,M,4,Lentiform Loewenfeld,3.3.8,m,715.062300000136,2,word
15,1,M,7,Lentiform Loewenfeld,3.3.8,m,670.3086999999941,2,word
16,0,C,2,Lentiform Loewenfeld,3.3.8,m,1256.7863999999245,2,nonword
17,1,C,7,Lentiform Loewenfeld,3.3.8,c,1026.8333000000566,2,nonword
18,1,M,7,Lentiform Loewenfeld,3.3.8,m,667.5464999999676,2,word
19,1,M,5,Lentiform Loewenfeld,3.3.8,m,1279.961600000126,2,word
20,0,M,4,Lentiform Loewenfeld,3.3.8,c,1113.9834999997984,2,word
21,0,C,5,Lentiform Loewenfeld,3.3.8,m,692.5249999998487,2,nonword
22,0,C,3,Lentiform Loewenfeld,3.3.8,m,1138.6048999999475,2,nonword
23,1,M,1,Lentiform Loewenfeld,3.3.8,m,715.4930999999051,2,word
24,1,C,7,Lentiform Loewenfeld,3.3.8,c,870.8766999999643,2,nonword
25,1,M,5,Lentiform Loewenfeld,3.3.8,m,480.79240000006394,2,word
26,1,M,3,Lentiform Loewenfeld,3.3.8,m,563.7853999998188,2,word
27,1,C,5,Lentiform Loewenfeld,3.3.8,c,631.2431000000215,2,nonword
28,1,M,3,Lentiform Loewenfeld,3.3.8,m,651.4995000001509,2,word
29,1,M,5,Lentiform Loewenfeld,3.3.8,m,973.4323999999906,2,word
30,1,C,3,Lentiform Loewenfeld,3.3.8,c,626.1814999999478,2,nonword
31,0,C,2,Lentiform Loewenfeld,3.3.8,m,809.7581999999529,2,nonword
32,1,M,1,Lentiform Loewenfeld,3.3.8,m,609.9834000000847,2,word
33,1,M,4,Lentiform Loewenfeld,3.3.8,m,766.904499999946,2,word
34,1,C,3,Lentiform Loewenfeld,3.3.8,c,1125.8355000001611,2,nonword
35,0,C,5,Lentiform Loewenfeld,3.3.8,m,648.3738999999478,2,nonword
36,1,M,6,Lentiform Loewenfeld,3.3.8,m,645.2897999999113,2,word
37,1,M,7,Lentiform Loewenfeld,3.3.8,m,1236.9339000000618,2,word
38,1,M,4,Lentiform Loewenfeld,3.3.8,m,870.974099999934,2,word
39,1,C,2,Lentiform Loewenfeld,3.3.8,c,728.0996999999043,2,nonword
40,1,M,2,Lentiform Loewenfeld,3.3.8,m,544.9167000000598,2,word
41,1,C,1,Lentiform Loewenfeld,3.3.8,c,649.6997000000556,2,nonword
42,1,C,2,Lentiform Loewenfeld,3.3.8,c,773.9336999999359,2,nonword
43,1,C,4,Lentiform Loewenfeld,3.3.8,c,653.5359000000753,2,nonword
44,1,C,1,Lentiform Loewenfeld,3.3.8,c,601.8063000000548,2,nonword
45,1,M,1,Lentiform Loewenfeld,3.3.8,m,871.4263999999384,2,word
46,1,M,6,Lentiform Loewenfeld,3.3.8,m,1005.304599999974,2,word
47,1,C,3,Lentiform Loewenfeld,3.3.8,c,785.312200000044,2,nonword
48,1,M,2,Lentiform Loewenfeld,3.3.8,m,648.2491000000737,2,word
49,1,M,6,Lentiform Loewenfeld,3.3.8,m,600.6392000000924,2,word
50,1,C,2,Lentiform Loewenfeld,3.3.8,c,843.7658000001684,2,nonword
51,1,C,5,Lentiform Loewenfeld,3.3.8,c,731.7826999998651,2,nonword
52,1,M,2,Lentiform Loewenfeld,3.3.8,m,649.9176999999909,2,word
53,1,M,2,Lentiform Loewenfeld,3.3.8,m,1059.31879999995,2,word
54,1,M,1,Lentiform Loewenfeld,3.3.8,m,561.5517000000109,2,word
55,1,M,1,Lentiform Loewenfeld,3.3.8,m,519.1495999999461,2,word
56,1,C,5,Lentiform Loewenfeld,3.3.8,c,642.2842999999411,2,nonword
57,1,C,7,Lentiform Loewenfeld,3.3.8,c,736.5341999999364,2,nonword
58,1,M,6,Lentiform Loewenfeld,3.3.8,m,661.778699999908,2,word
59,1,C,6,Lentiform Loewenfeld,3.3.8,c,774.5117000000901,2,nonword
60,1,C,2,Lentiform Loewenfeld,3.3.8,c,975.0895999999484,2,nonword
61,1,C,3,Lentiform Loewenfeld,3.3.8,c,612.1468999999342,2,nonword
62,1,M,3,Lentiform Loewenfeld,3.3.8,m,650.7680000001565,2,word
63,1,M,4,Lentiform Loewenfeld,3.3.8,m,1095.1706000000122,2,word
64,1,C,5,Lentiform Loewenfeld,3.3.8,c,574.5197000000626,2,nonword
65,1,C,3,Lentiform Loewenfeld,3.3.8,c,791.8154000000213,2,nonword
66,1,M,6,Lentiform Loewenfeld,3.3.8,m,1096.3815999999642,2,word
67,1,C,1,Lentiform Loewenfeld,3.3.8,c,721.1183999999193,2,nonword
68,0,C,4,Lentiform Loewenfeld,3.3.8,m,828.3893999997526,2,nonword
69,1,C,3,Lentiform Loewenfeld,3.3.8,c,707.9875999999349,2,nonword
70,1,C,5,Lentiform Loewenfeld,3.3.8,c,637.1992000000901,2,nonword
71,1,M,3,Lentiform Loewenfeld,3.3.8,m,533.3053999999538,2,word
72,0,M,7,Lentiform Loewenfeld,3.3.8,c,864.2776000000304,2,word
73,1,M,2,Lentiform Loewenfeld,3.3.8,m,665.1520000001765,2,word
74,1,C,6,Lentiform Loewenfeld,3.3.8,c,676.0907000001753,2,nonword
75,1,M,2,Lentiform Loewenfeld,3.3.8,m,948.8515000002226,2,word
76,1,C,5,Lentiform Loewenfeld,3.3.8,c,621.4492000000319,2,nonword
77,1,M,5,Lentiform Loewenfeld,3.3.8,m,796.0151999999653,2,word
78,1,M,5,Lentiform Loewenfeld,3.3.8,m,657.1089999998803,2,word
79,1,M,1,Lentiform Loewenfeld,3.3.8,m,876.5457999999053,2,word
80,1,M,6,Lentiform Loewenfeld,3.3.8,m,836.7675000000745,2,word
81,1,C,1,Lentiform Loewenfeld,3.3.8,c,703.4711000000243,2,nonword
82,1,C,3,Lentiform Loewenfeld,3.3.8,c,748.2661999998963,2,nonword
83,1,C,7,Lentiform Loewenfeld,3.3.8,c,973.5445000000182,2,nonword
84,0,M,4,Lentiform Loewenfeld,3.3.8,c,854.0629000000772,2,word
85,1,M,5,Lentiform Loewenfeld,3.3.8,m,1155.6142000001273,2,word
86,1,M,2,Lentiform Loewenfeld,3.3.8,m,1216.807899999956,2,word
87,1,M,4,Lentiform Loewenfeld,3.3.8,m,1020.5389999999898,2,word
88,1,C,1,Lentiform Loewenfeld,3.3.8,c,645.0667000000831,2,nonword
89,1,C,7,Lentiform Loewenfeld,3.3.8,c,1574.9879000001238,2,nonword
90,1,M,5,Lentiform Loewenfeld,3.3.8,m,755.3633999999729,2,word
91,1,C,3,Lentiform Loewenfeld,3.3.8,c,690.8881999999285,2,nonword
92,1,M,6,Lentiform Loewenfeld,3.3.8,m,802.6650000000955,2,word
93,1,C,4,Lentiform Loewenfeld,3.3.8,c,621.7893000001786,2,nonword
94,1,M,4,Lentiform Loewenfeld,3.3.8,m,753.8278999999748,2,word
95,1,M,3,Lentiform Loewenfeld,3.3.8,m,781.2526000001817,2,word
96,1,C,5,Lentiform Loewenfeld,3.3.8,c,755.8640000001178,2,nonword
97,1,M,4,Lentiform Loewenfeld,3.3.8,m,733.755999999994,2,word
98,1,M,4,Lentiform Loewenfeld,3.3.8,m,708.1723999998649,2,word
99,1,C,1,Lentiform Loewenfeld,3.3.8,c,680.1068000001251,2,nonword
100,1,C,7,Lentiform Loewenfeld,3.3.8,c,760.9996999998693,2,nonword
101,1,C,4,Lentiform Loewenfeld,3.3.8,c,909.1093000000692,2,nonword
102,1,M,2,Lentiform Loewenfeld,3.3.8,m,1015.1609000001336,2,word
103,0,C,2,Lentiform Loewenfeld,3.3.8,m,922.559399999911,2,nonword
104,1,M,3,Lentiform Loewenfeld,3.3.8,m,1049.2928000000538,2,word
105,1,M,4,Lentiform Loewenfeld,3.3.8,m,557.8762000001152,2,word
106,1,M,7,Lentiform Loewenfeld,3.3.8,m,622.2835000000196,2,word
107,1,C,5,Lentiform Loewenfeld,3.3.8,c,614.5567000000156,2,nonword
108,1,M,7,Lentiform Loewenfeld,3.3.8,m,1005.4698999999091,2,word
109,1,M,4,Lentiform Loewenfeld,3.3.8,m,1213.112999999954,2,word
110,1,C,4,Lentiform Loewenfeld,3.3.8,c,1500.37509999983,2,nonword
111,0,C,5,Lentiform Loewenfeld,3.3.8,m,1008.5723000001162,2,nonword
112,1,C,6,Lentiform Loewenfeld,3.3.8,c,1363.7179000001634,2,nonword
113,1,M,1,Lentiform Loewenfeld,3.3.8,m,758.1303000000771,2,word
114,1,C,4,Lentiform Loewenfeld,3.3.8,c,1069.3373000000138,2,nonword
115,0,C,2,Lentiform Loewenfeld,3.3.8,,2150.0212999998475,2,nonword
116,1,C,6,Lentiform Loewenfeld,3.3.8,c,986.3153000000748,2,nonword
117,1,C,2,Lentiform Loewenfeld,3.3.8,c,867.7256000000052,2,nonword
118,1,M,5,Lentiform Loewenfeld,3.3.8,m,752.2898999999743,2,word
119,1,C,2,Lentiform Loewenfeld,3.3.8,c,1181.8663999999408,2,nonword
120,1,C,1,Lentiform Loewenfeld,3.3.8,c,674.0628999999608,2,nonword
121,1,M,5,Lentiform Loewenfeld,3.3.8,m,631.3091999999597,2,word
122,1,C,1,Lentiform Loewenfeld,3.3.8,c,969.2405999998446,2,nonword
123,1,C,2,Lentiform Loewenfeld,3.3.8,c,988.9885999999824,2,nonword
124,1,C,3,Lentiform Loewenfeld,3.3.8,c,646.2021999999997,2,nonword
125,1,M,2,Lentiform Loewenfeld,3.3.8,m,851.1011000002036,2,word
126,1,M,7,Lentiform Loewenfeld,3.3.8,m,1187.5266000000993,2,word
127,1,C,6,Lentiform Loewenfeld,3.3.8,c,695.5489000001107,2,nonword
128,1,C,1,Lentiform Loewenfeld,3.3.8,c,1454.2734999998938,2,nonword
129,1,C,2,Lentiform Loewenfeld,3.3.8,c,1007.9770000001299,2,nonword
130,1,C,3,Lentiform Loewenfeld,3.3.8,c,642.8534999999101,2,nonword
131,1,M,6,Lentiform Loewenfeld,3.3.8,m,734.7834999999614,2,word
132,1,M,2,Lentiform Loewenfeld,3.3.8,m,1756.9040999998688,2,word
133,1,M,6,Lentiform Loewenfeld,3.3.8,m,852.487500000163,2,word
134,1,M,6,Lentiform Loewenfeld,3.3.8,m,717.7499999999418,2,word
135,1,C,7,Lentiform Loewenfeld,3.3.8,c,1863.3102999998373,2,nonword
136,1,C,5,Lentiform Loewenfeld,3.3.8,c,1514.4343999999692,2,nonword
137,1,M,7,Lentiform Loewenfeld,3.3.8,m,785.7791000000434,2,word
138,1,C,4,Lentiform Loewenfeld,3.3.8,c,928.7203999999329,2,nonword
139,1,M,6,Lentiform Loewenfeld,3.3.8,m,730.2434999998077,2,word
140,1,C,4,Lentiform Loewenfeld,3.3.8,c,852.0032999998657,2,nonword
141,1,M,7,Lentiform Loewenfeld,3.3.8,m,1100.7660000001779,2,word
142,1,M,3,Lentiform Loewenfeld,3.3.8,m,652.1242000000784,2,word
143,0,M,3,Lentiform Loewenfeld,3.3.8,c,757.9405000000261,2,word
144,1,M,5,Lentiform Loewenfeld,3.3.8,m,577.4603999999235,2,word
145,1,C,1,Lentiform Loewenfeld,3.3.8,c,656.7228000000468,2,nonword
146,0,M,6,Lentiform Loewenfeld,3.3.8,c,714.1559999999008,2,word
147,1,C,1,Lentiform Loewenfeld,3.3.8,c,825.5907000001753,2,nonword
148,1,M,5,Lentiform Loewenfeld,3.3.8,m,857.8435999999056,2,word
149,1,M,7,Lentiform Loewenfeld,3.3.8,m,810.9258000000846,2,word
150,1,M,7,Lentiform Loewenfeld,3.3.8,m,1686.3996999999508,2,word
151,1,M,5,Lentiform Loewenfeld,3.3.8,m,528.7670999999391,2,word
152,0,C,4,Lentiform Loewenfeld,3.3.8,m,500.0413000001572,2,nonword
153,0,C,7,Lentiform Loewenfeld,3.3.8,m,780.6313000000082,2,nonword
154,1,M,3,Lentiform Loewenfeld,3.3.8,m,964.8836000000592,2,word
155,1,M,1,Lentiform Loewenfeld,3.3.8,m,606.5033999999287,2,word
156,1,C,5,Lentiform Loewenfeld,3.3.8,c,518.0849999998463,2,nonword
157,1,C,7,Lentiform Loewenfeld,3.3.8,c,798.703499999945,2,nonword
158,1,M,6,Lentiform Loewenfeld,3.3.8,m,785.9382000000915,2,word
159,1,C,5,Lentiform Loewenfeld,3.3.8,c,790.5224999998463,2,nonword
160,1,C,2,Lentiform Loewenfeld,3.3.8,c,750.799600000144,2,nonword
161,1,C,6,Lentiform Loewenfeld,3.3.8,c,918.6630000000587,2,nonword
162,1,C,3,Lentiform Loewenfeld,3.3.8,c,567.0682000002125,2,nonword
163,1,M,1,Lentiform Loewenfeld,3.3.8,m,783.3202000000747,2,word
164,0,C,6,Lentiform Loewenfeld,3.3.8,m,882.4300000000512,2,nonword
165,0,M,5,Lentiform Loewenfeld,3.3.8,c,1483.4626000000862,2,word
166,1,M,1,Lentiform Loewenfeld,3.3.8,m,679.9686000001384,2,word
167,1,C,7,Lentiform Loewenfeld,3.3.8,c,681.7689000000246,2,nonword
168,1,C,2,Lentiform Loewenfeld,3.3.8,c,869.8443999998271,2,nonword
169,0,M,4,Lentiform Loewenfeld,3.3.8,c,848.2408000001451,2,word
170,1,C,6,Lentiform Loewenfeld,3.3.8,c,863.9950000001118,2,nonword
171,0,C,7,Lentiform Loewenfeld,3.3.8,m,605.24869999988,2,nonword
172,0,M,5,Lentiform Loewenfeld,3.3.8,c,960.3600000001024,2,word
173,1,M,3,Lentiform Loewenfeld,3.3.8,m,997.2155999999959,2,word
174,0,C,1,Lentiform Loewenfeld,3.3.8,m,886.4755000000587,2,nonword
175,1,M,7,Lentiform Loewenfeld,3.3.8,m,789.0246000000043,2,word
176,1,M,6,Lentiform Loewenfeld,3.3.8,m,793.7657000001054,2,word
177,0,C,6,Lentiform Loewenfeld,3.3.8,m,688.8398999999044,2,nonword
178,1,C,6,Lentiform Loewenfeld,3.3.8,c,809.0808999999426,2,nonword
179,0,C,3,Lentiform Loewenfeld,3.3.8,m,1075.1658999999054,2,nonword
180,1,M,4,Lentiform Loewenfeld,3.3.8,m,722.2338000000454,2,word
181,1,M,6,Lentiform Loewenfeld,3.3.8,m,730.1563000000315,2,word
182,0,C,5,Lentiform Loewenfeld,3.3.8,m,1542.5672000000486,2,nonword
183,1,M,2,Lentiform Loewenfeld,3.3.8,m,733.5933000000659,2,word
184,0,C,7,Lentiform Loewenfeld,3.3.8,m,1132.6616999998223,2,nonword
185,1,M,5,Lentiform Loewenfeld,3.3.8,m,658.3570999999065,2,word
186,1,M,3,Lentiform Loewenfeld,3.3.8,m,568.9736000000266,2,word
187,1,M,4,Lentiform Loewenfeld,3.3.8,m,558.093600000022,2,word
188,1,C,2,Lentiform Loewenfeld,3.3.8,c,671.8652999999467,2,nonword
189,1,C,2,Lentiform Loewenfeld,3.3.8,c,663.4028000000399,2,nonword
190,1,C,4,Lentiform Loewenfeld,3.3.8,c,774.8785999998217,2,nonword
191,1,C,7,Lentiform Loewenfeld,3.3.8,c,855.4575000000186,2,nonword
192,1,M,1,Lentiform Loewenfeld,3.3.8,m,771.0486999998102,2,word
193,1,C,7,Lentiform Loewenfeld,3.3.8,c,1500.289799999911,2,nonword
194,1,M,1,Lentiform Loewenfeld,3.3.8,m,731.4475000002421,2,word
195,1,M,4,Lentiform Loewenfeld,3.3.8,m,712.5494000001345,2,word
196,1,C,5,Lentiform Loewenfeld,3.3.8,c,650.1466000000946,2,nonword
197,0,C,7,Lentiform Loewenfeld,3.3.8,m,622.0949000000255,2,nonword
198,1,C,4,Lentiform Loewenfeld,3.3.8,c,663.4992000000784,2,nonword
199,0,C,6,Lentiform Loewenfeld,3.3.8,m,716.7443000000203,2,nonword
200,1,M,3,Lentiform Loewenfeld,3.3.8,m,837.1610999999102,2,word
201,1,M,2,Lentiform Loewenfeld,3.3.8,m,661.5967000002274,2,word
202,1,C,1,Lentiform Loewenfeld,3.3.8,c,678.667099999846,2,nonword
203,0,C,2,Lentiform Loewenfeld,3.3.8,m,1261.7842999999411,2,nonword
204,0,M,1,Lentiform Loewenfeld,3.3.8,c,1800.9370000001509,2,word
205,0,C,3,Lentiform Loewenfeld,3.3.8,m,722.5754000000888,2,nonword
206,1,M,4,Lentiform Loewenfeld,3.3.8,m,857.1501000000862,2,word
207,1,C,7,Lentiform Loewenfeld,3.3.8,c,592.8792000001995,2,nonword
208,1,C,6,Lentiform Loewenfeld,3.3.8,c,1149.6124999999302,2,nonword
209,0,C,1,Lentiform Loewenfeld,3.3.8,m,874.3592000000644,2,nonword
210,1,C,4,Lentiform Loewenfeld,3.3.8,c,797.6386999997776,2,nonword
211,1,M,3,Lentiform Loewenfeld,3.3.8,m,542.9000999998534,2,word
212,1,C,3,Lentiform Loewenfeld,3.3.8,c,593.1663000000408,2,nonword
213,1,M,1,Lentiform Loewenfeld,3.3.8,m,658.7753000000957,2,word
214,0,C,4,Lentiform Loewenfeld,3.3.8,m,841.5350000002654,2,nonword
215,1,M,2,Lentiform Loewenfeld,3.3.8,m,503.8806999999797,2,word
216,1,C,6,Lentiform Loewenfeld,3.3.8,c,601.9201000001049,2,nonword
217,1,M,6,Lentiform Loewenfeld,3.3.8,m,987.1571000000695,2,word
218,1,M,1,Lentiform Loewenfeld,3.3.8,m,712.5343000000576,2,word
219,0,M,6,Lentiform Loewenfeld,3.3.8,c,760.6039999999339,2,word
220,1,M,3,Lentiform Loewenfeld,3.3.8,m,511.35580000001937,2,word
221,1,C,5,Lentiform Loewenfeld,3.3.8,c,928.9795999999624,2,nonword
222,1,M,1,Lentiform Loewenfeld,3.3.8,m,572.7136999999639,2,word
223,0,C,1,Lentiform Loewenfeld,3.3.8,m,959.4625000001397,2,nonword
224,1,M,5,Lentiform Loewenfeld,3.3.8,m,567.6548000000184,2,word
225,1,M,7,Lentiform Loewenfeld,3.3.8,m,764.8069000000833,2,word
226,1,M,1,Lentiform Loewenfeld,3.3.8,m,739.8342000000412,2,word
227,1,C,4,Lentiform Loewenfeld,3.3.8,c,809.1118999999017,2,nonword
228,1,M,2,Lentiform Loewenfeld,3.3.8,m,596.8444000001764,2,word
229,1,M,5,Lentiform Loewenfeld,3.3.8,m,515.7679999998072,2,word
230,1,C,1,Lentiform Loewenfeld,3.3.8,c,653.8609999999171,2,nonword
231,1,M,4,Lentiform Loewenfeld,3.3.8,m,831.402599999914,2,word
232,0,C,4,Lentiform Loewenfeld,3.3.8,m,668.0607999999775,2,nonword
233,1,C,5,Lentiform Loewenfeld,3.3.8,c,846.3128000000725,2,nonword
234,1,M,5,Lentiform Loewenfeld,3.3.8,m,605.205900000059,2,word
235,1,C,6,Lentiform Loewenfeld,3.3.8,c,1353.3671999999788,2,nonword
236,1,C,1,Lentiform Loewenfeld,3.3.8,c,696.8612999999896,2,nonword
237,1,C,3,Lentiform Loewenfeld,3.3.8,c,646.8945999998832,2,nonword
238,1,C,6,Lentiform Loewenfeld,3.3.8,c,573.1437999999616,2,nonword
239,1,M,6,Lentiform Loewenfeld,3.3.8,m,745.9272999999812,2,word
240,1,M,4,Lentiform Loewenfeld,3.3.8,m,536.3237000000663,2,word
241,0,C,7,Lentiform Loewenfeld,3.3.8,m,535.6171000000322,2,nonword
242,1,M,7,Lentiform Loewenfeld,3.3.8,m,629.6919999999227,2,word
243,1,M,2,Lentiform Loewenfeld,3.3.8,m,1022.0009999999311,2,word
244,1,M,3,Lentiform Loewenfeld,3.3.8,m,1239.857999999891,2,word
245,1,M,5,Lentiform Loewenfeld,3.3.8,m,677.5556999999098,2,word
246,1,C,6,Lentiform Loewenfeld,3.3.8,c,698.3090000000084,2,nonword
247,1,C,3,Lentiform Loewenfeld,3.3.8,c,1205.3974999999627,2,nonword
248,1,M,1,Lentiform Loewenfeld,3.3.8,m,686.266200000071,2,word
249,1,C,4,Lentiform Loewenfeld,3.3.8,c,706.9704000001075,2,nonword
250,1,M,2,Lentiform Loewenfeld,3.3.8,m,615.9592000000412,2,word
251,1,C,3,Lentiform Loewenfeld,3.3.8,c,668.0520999999717,2,nonword
252,0,C,2,Lentiform Loewenfeld,3.3.8,m,820.1745999999112,2,nonword
253,1,C,7,Lentiform Loewenfeld,3.3.8,c,1225.4422000000486,2,nonword
254,1,M,2,Lentiform Loewenfeld,3.3.8,m,874.0956999998307,2,word
255,1,M,1,Lentiform Loewenfeld,3.3.8,m,884.5039999999572,2,word
256,1,C,5,Lentiform Loewenfeld,3.3.8,c,674.5273000000743,2,nonword
257,0,M,6,Lentiform Loewenfeld,3.3.8,c,1216.9687000002014,2,word
258,1,C,4,Lentiform Loewenfeld,3.3.8,c,629.1868999999715,2,nonword
259,1,M,3,Lentiform Loewenfeld,3.3.8,m,661.4307000000263,2,word
260,1,M,7,Lentiform Loewenfeld,3.3.8,m,631.18479999993,2,word
261,1,C,2,Lentiform Loewenfeld,3.3.8,c,708.2709000000032,2,nonword
262,1,M,6,Lentiform Loewenfeld,3.3.8,m,632.0351999999257,2,word
263,0,C,1,Lentiform Loewenfeld,3.3.8,m,1369.4300000000512,2,nonword
264,1,C,3,Lentiform Loewenfeld,3.3.8,c,816.3206999999238,2,nonword
265,1,M,4,Lentiform Loewenfeld,3.3.8,m,658.8738000001758,2,word
266,1,M,3,Lentiform Loewenfeld,3.3.8,m,638.7912999999244,2,word
267,1,C,4,Lentiform Loewenfeld,3.3.8,c,629.3956999998773,2,nonword
268,0,C,7,Lentiform Loewenfeld,3.3.8,m,688.8219999999274,2,nonword
269,1,C,6,Lentiform Loewenfeld,3.3.8,c,703.7469000000274,2,nonword
270,0,C,3,Lentiform Loewenfeld,3.3.8,m,729.8404999998165,2,nonword
271,1,M,2,Lentiform Loewenfeld,3.3.8,m,873.4336999999359,2,word
272,1,M,7,Lentiform Loewenfeld,3.3.8,m,1140.6753000000026,2,word
273,1,M,7,Lentiform Loewenfeld,3.3.8,m,650.7086000001291,2,word
274,1,C,6,Lentiform Loewenfeld,3.3.8,c,700.8043000000762,2,nonword
275,1,M,6,Lentiform Loewenfeld,3.3.8,m,1045.2240000000456,2,word
276,0,M,1,Lentiform Loewenfeld,3.3.8,c,1220.8289999999106,2,word
277,1,M,4,Lentiform Loewenfeld,3.3.8,m,655.1526999998605,2,word
278,1,M,1,Lentiform Loewenfeld,3.3.8,m,615.23199999996,2,word
279,0,C,6,Lentiform Loewenfeld,3.3.8,m,757.1546000001254,2,nonword
280,1,C,5,Lentiform Loewenfeld,3.3.8,c,650.0731000000378,2,nonword
281,1,M,7,Lentiform Loewenfeld,3.3.8,m,682.1338999998989,2,word
282,1,M,6,Lentiform Loewenfeld,3.3.8,m,608.1031999998959,2,word
283,1,M,2,Lentiform Loewenfeld,3.3.8,m,686.5130000000354,2,word
284,1,M,4,Lentiform Loewenfeld,3.3.8,m,452.08459999994375,2,word
285,1,C,1,Lentiform Loewenfeld,3.3.8,c,704.185599999968,2,nonword
286,1,M,4,Lentiform Loewenfeld,3.3.8,m,522.4615999999223,2,word
287,1,C,5,Lentiform Loewenfeld,3.3.8,c,764.2499000000535,2,nonword
288,1,M,7,Lentiform Loewenfeld,3.3.8,m,882.9648000000743,2,word
289,1,M,2,Lentiform Loewenfeld,3.3.8,m,609.7641000000294,2,word
290,1,M,1,Lentiform Loewenfeld,3.3.8,m,972.8730000000214,2,word
291,1,C,4,Lentiform Loewenfeld,3.3.8,c,715.7438000000548,2,nonword
292,1,C,1,Lentiform Loewenfeld,3.3.8,c,848.4231999999611,2,nonword
293,1,C,5,Lentiform Loewenfeld,3.3.8,c,661.0600000000559,2,nonword
294,1,C,6,Lentiform Loewenfeld,3.3.8,c,698.292399999802,2,nonword
295,1,M,7,Lentiform Loewenfeld,3.3.8,m,1062.5740000000224,2,word
296,1,M,7,Lentiform Loewenfeld,3.3.8,m,705.9285000001546,2,word
297,1,C,2,Lentiform Loewenfeld,3.3.8,c,1187.3251000000164,2,nonword
298,1,M,2,Lentiform Loewenfeld,3.3.8,m,848.080200000084,2,word
299,1,M,2,Lentiform Loewenfeld,3.3.8,m,602.4888999999966,2,word
300,1,M,4,Lentiform Loewenfeld,3.3.8,m,946.1130999999586,2,word
301,1,C,6,Lentiform Loewenfeld,3.3.8,c,608.8477999998722,2,nonword
302,1,C,6,Lentiform Loewenfeld,3.3.8,c,708.4109000001336,2,nonword
303,1,M,3,Lentiform Loewenfeld,3.3.8,m,566.1606999998912,2,word
304,1,C,2,Lentiform Loewenfeld,3.3.8,c,601.9824000000954,2,nonword
305,1,C,6,Lentiform Loewenfeld,3.3.8,c,1312.935999999987,2,nonword
306,1,M,6,Lentiform Loewenfeld,3.3.8,m,763.5881000000518,2,word
307,0,C,5,Lentiform Loewenfeld,3.3.8,m,683.6692999999505,2,nonword
308,1,C,7,Lentiform Loewenfeld,3.3.8,c,998.9383000001544,2,nonword
309,1,M,4,Lentiform Loewenfeld,3.3.8,m,566.1389000000199,2,word
310,0,M,7,Lentiform Loewenfeld,3.3.8,c,906.0735000000568,2,word
311,1,C,3,Lentiform Loewenfeld,3.3.8,c,628.8180999999167,2,nonword
312,1,M,3,Lentiform Loewenfeld,3.3.8,m,815.7537999999477,2,word
313,1,C,3,Lentiform Loewenfeld,3.3.8,c,822.0278000000399,2,nonword
314,1,M,6,Lentiform Loewenfeld,3.3.8,m,703.9133999998448,2,word
315,1,C,1,Lentiform Loewenfeld,3.3.8,c,629.9921000001486,2,nonword
316,1,C,3,Lentiform Loewenfeld,3.3.8,c,733.7455000000773,2,nonword
317,1,M,3,Lentiform Loewenfeld,3.3.8,m,690.500800000038,2,word
318,1,C,7,Lentiform Loewenfeld,3.3.8,c,556.7348999999231,2,nonword
319,1,C,4,Lentiform Loewenfeld,3.3.8,c,748.840799999889,2,nonword
320,0,C,5,Lentiform Loewenfeld,3.3.8,m,791.266500000027,2,nonword
321,1,M,3,Lentiform Loewenfeld,3.3.8,m,770.3582999999635,2,word
322,1,M,7,Lentiform Loewenfeld,3.3.8,m,1109.4491000000853,2,word
323,0,M,2,Lentiform Loewenfeld,3.3.8,c,1019.1465000001481,2,word
324,1,M,6,Lentiform Loewenfeld,3.3.8,m,682.3965999998618,2,word
325,0,C,4,Lentiform Loewenfeld,3.3.8,m,748.1669000000693,2,nonword
326,1,C,7,Lentiform Loewenfeld,3.3.8,c,781.5707999999868,2,nonword
327,1,M,2,Lentiform Loewenfeld,3.3.8,m,721.6352999999654,2,word
328,1,C,2,Lentiform Loewenfeld,3.3.8,c,714.8711999999359,2,nonword
329,1,M,4,Lentiform Loewenfeld,3.3.8,m,1109.4742999997688,2,word
330,1,M,3,Lentiform Loewenfeld,3.3.8,m,777.3386000000173,2,word
331,1,C,3,Lentiform Loewenfeld,3.3.8,c,865.5639000000665,2,nonword
332,1,M,1,Lentiform Loewenfeld,3.3.8,m,887.6538999999175,2,word
333,1,C,7,Lentiform Loewenfeld,3.3.8,c,753.0769000001019,2,nonword
334,1,M,7,Lentiform Loewenfeld,3.3.8,m,493.3092000000179,2,word
335,1,C,7,Lentiform Loewenfeld,3.3.8,c,618.6260000000475,2,nonword
336,0,M,2,Lentiform Loewenfeld,3.3.8,c,637.3910999998916,2,word
337,0,C,7,Lentiform Loewenfeld,3.3.8,m,808.4154000000563,2,nonword
338,1,C,5,Lentiform Loewenfeld,3.3.8,c,739.2345000000205,2,nonword
339,0,M,1,Lentiform Loewenfeld,3.3.8,c,780.4710999999661,2,word
340,1,C,7,Lentiform Loewenfeld,3.3.8,c,921.5925000000279,2,nonword
341,1,M,2,Lentiform Loewenfeld,3.3.8,m,541.1426999999676,2,word
342,1,C,3,Lentiform Loewenfeld,3.3.8,c,586.9647000001278,2,nonword
343,1,C,5,Lentiform Loewenfeld,3.3.8,c,575.732399999979,2,nonword
344,1,M,6,Lentiform Loewenfeld,3.3.8,m,549.8140999999596,2,word
345,1,C,4,Lentiform Loewenfeld,3.3.8,c,537.5738000001293,2,nonword
346,1,M,6,Lentiform Loewenfeld,3.3.8,m,501.20310000004247,2,word
347,1,M,5,Lentiform Loewenfeld,3.3.8,m,495.159200000111,2,word
348,1,C,4,Lentiform Loewenfeld,3.3.8,c,485.76190000015777,2,nonword
349,1,C,3,Lentiform Loewenfeld,3.3.8,c,647.030199999921,2,nonword
350,1,C,2,Lentiform Loewenfeld,3.3.8,c,709.9945999999763,2,nonword
351,1,C,1,Lentiform Loewenfeld,3.3.8,c,654.0651000000071,2,nonword
352,1,M,6,Lentiform Loewenfeld,3.3.8,m,535.8173999999417,2,word
353,1,M,5,Lentiform Loewenfeld,3.3.8,m,587.0966000001645,2,word
354,0,C,1,Lentiform Loewenfeld,3.3.8,m,315.0111999999499,2,nonword
355,1,C,2,Lentiform Loewenfeld,3.3.8,c,458.9766000000527,2,nonword
356,1,C,3,Lentiform Loewenfeld,3.3.8,c,518.2746000000043,2,nonword
357,1,M,7,Lentiform Loewenfeld,3.3.8,m,507.69189999985974,2,word
358,1,M,1,Lentiform Loewenfeld,3.3.8,m,792.964299999876,2,word
359,1,M,4,Lentiform Loewenfeld,3.3.8,m,1686.2118999998784,2,word
360,1,M,1,Lentiform Loewenfeld,3.3.8,m,565.8462000000291,2,word
361,0,C,1,Lentiform Loewenfeld,3.3.8,m,1011.251600000076,2,nonword
362,1,C,5,Lentiform Loewenfeld,3.3.8,c,946.5383999998448,2,nonword
363,1,M,3,Lentiform Loewenfeld,3.3.8,m,816.3635999998078,2,word
364,1,C,6,Lentiform Loewenfeld,3.3.8,c,680.075799999875,2,nonword
365,1,C,4,Lentiform Loewenfeld,3.3.8,c,617.1882000002079,2,nonword
366,0,C,2,Lentiform Loewenfeld,3.3.8,m,819.7835999998497,2,nonword
367,1,C,2,Lentiform Loewenfeld,3.3.8,c,662.2107999996515,2,nonword
368,0,M,3,Lentiform Loewenfeld,3.3.8,c,552.6240999996662,2,word
369,1,M,3,Lentiform Loewenfeld,3.3.8,m,636.0749000000069,2,word
370,1,M,7,Lentiform Loewenfeld,3.3.8,m,606.3376000000862,2,word
371,1,M,1,Lentiform Loewenfeld,3.3.8,m,517.406799999997,2,word
372,1,C,6,Lentiform Loewenfeld,3.3.8,c,658.8459000003058,2,nonword
373,0,M,5,Lentiform Loewenfeld,3.3.8,c,658.6296999998158,2,word
374,1,M,4,Lentiform Loewenfeld,3.3.8,m,934.0213999997359,2,word
375,1,C,1,Lentiform Loewenfeld,3.3.8,c,642.2105000000447,2,nonword
376,0,C,7,Lentiform Loewenfeld,3.3.8,m,698.3331000001635,2,nonword
377,1,M,3,Lentiform Loewenfeld,3.3.8,m,948.9091999996454,2,word
378,1,M,4,Lentiform Loewenfeld,3.3.8,m,655.7916999999434,2,word
379,1,M,2,Lentiform Loewenfeld,3.3.8,m,662.218499999959,2,word
380,0,C,7,Lentiform Loewenfeld,3.3.8,m,696.0101000005379,2,nonword
381,1,C,2,Lentiform Loewenfeld,3.3.8,c,592.0779999999795,2,nonword
382,1,C,3,Lentiform Loewenfeld,3.3.8,c,1112.1544000001159,2,nonword
383,1,C,4,Lentiform Loewenfeld,3.3.8,c,677.9151999996975,2,nonword
384,1,M,5,Lentiform Loewenfeld,3.3.8,m,746.1554999998771,2,word
385,0,C,2,Lentiform Loewenfeld,3.3.8,m,1318.2256000000052,2,nonword
386,1,M,5,Lentiform Loewenfeld,3.3.8,m,693.9046999998391,2,word
387,0,C,7,Lentiform Loewenfeld,3.3.8,m,747.8189999999013,2,nonword
388,0,C,5,Lentiform Loewenfeld,3.3.8,m,803.2283999999054,2,nonword
389,1,C,3,Lentiform Loewenfeld,3.3.8,c,835.7954000001773,2,nonword
390,1,M,6,Lentiform Loewenfeld,3.3.8,m,560.0503999998327,2,word
391,1,C,1,Lentiform Loewenfeld,3.3.8,c,618.6417000002693,2,nonword
392,1,C,2,Lentiform Loewenfeld,3.3.8,c,628.1051999996416,2,nonword
393,1,C,2,Lentiform Loewenfeld,3.3.8,c,586.9958999999799,2,nonword
394,1,C,3,Lentiform Loewenfeld,3.3.8,c,688.4465000003111,2,nonword
395,1,M,4,Lentiform Loewenfeld,3.3.8,m,710.8359000000637,2,word
396,1,M,7,Lentiform Loewenfeld,3.3.8,m,612.0871000001207,2,word
397,0,M,1,Lentiform Loewenfeld,3.3.8,c,698.3162000000011,2,word
398,1,M,2,Lentiform Loewenfeld,3.3.8,m,673.4212999998126,2,word
399,0,C,1,Lentiform Loewenfeld,3.3.8,m,919.2032000005711,2,nonword
400,1,C,4,Lentiform Loewenfeld,3.3.8,c,600.5881999998819,2,nonword
401,1,M,7,Lentiform Loewenfeld,3.3.8,m,688.7179999998771,2,word
402,1,C,4,Lentiform Loewenfeld,3.3.8,c,721.8179999999702,2,nonword
403,0,C,6,Lentiform Loewenfeld,3.3.8,m,1283.2078999998048,2,nonword
404,0,M,5,Lentiform Loewenfeld,3.3.8,c,795.9207999999635,2,word
405,1,M,3,Lentiform Loewenfeld,3.3.8,m,629.1699000003282,2,word
406,1,M,5,Lentiform Loewenfeld,3.3.8,m,784.7724000003655,2,word
407,1,C,6,Lentiform Loewenfeld,3.3.8,c,658.2005000000354,2,nonword
408,1,M,2,Lentiform Loewenfeld,3.3.8,m,551.776799999876,2,word
409,0,M,5,Lentiform Loewenfeld,3.3.8,c,661.9071000004187,2,word
410,1,M,5,Lentiform Loewenfeld,3.3.8,m,562.8293999999296,2,word
411,1,C,5,Lentiform Loewenfeld,3.3.8,c,619.9206000000704,2,nonword
412,1,M,7,Lentiform Loewenfeld,3.3.8,m,746.6803000001237,2,word
413,1,M,2,Lentiform Loewenfeld,3.3.8,m,569.1122999999207,2,word
414,1,C,7,Lentiform Loewenfeld,3.3.8,c,731.5396000002511,2,nonword
415,1,C,1,Lentiform Loewenfeld,3.3.8,c,822.8305999999866,2,nonword
416,0,C,4,Lentiform Loewenfeld,3.3.8,m,799.3934999997728,2,nonword
417,0,M,5,Lentiform Loewenfeld,3.3.8,c,630.4434999995865,2,word
418,1,C,4,Lentiform Loewenfeld,3.3.8,c,732.0423999999184,2,nonword
419,1,M,6,Lentiform Loewenfeld,3.3.8,m,679.1033999996725,2,word
