Unnamed: 0,correct_keyboard_response_1,correct_response,flanker_condition,opensesame_codename,opensesame_version,response_keyboard_response_1,response_time_keyboard_response_1,subject_nr,target_type
0,1,M,3,Lentiform Loewenfeld,3.3.8,m,456.19189999997616,40,word
1,1,M,6,Lentiform Loewenfeld,3.3.8,m,392.5565999999817,40,word
2,1,C,3,Lentiform Loewenfeld,3.3.8,c,589.7667000000074,40,nonword
3,1,M,1,Lentiform Loewenfeld,3.3.8,m,462.13409999999567,40,word
4,1,C,5,Lentiform Loewenfeld,3.3.8,c,610.0370000000112,40,nonword
5,1,M,3,Lentiform Loewenfeld,3.3.8,m,511.8729999999923,40,word
6,1,C,3,Lentiform Loewenfeld,3.3.8,c,585.2661999999837,40,nonword
7,1,M,7,Lentiform Loewenfeld,3.3.8,m,554.9936999999918,40,word
8,1,C,7,Lentiform Loewenfeld,3.3.8,c,586.8188000000082,40,nonword
9,1,M,2,Lentiform Loewenfeld,3.3.8,m,470.40629999997327,40,word
10,0,C,7,Lentiform Loewenfeld,3.3.8,m,620.7776999999769,40,nonword
11,1,C,5,Lentiform Loewenfeld,3.3.8,c,688.0405000000028,40,nonword
12,0,C,6,Lentiform Loewenfeld,3.3.8,m,502.6890999999596,40,nonword
13,1,M,2,Lentiform Loewenfeld,3.3.8,m,689.5815000000002,40,word
14,1,M,4,Lentiform Loewenfeld,3.3.8,m,567.9345999999787,40,word
15,1,M,5,Lentiform Loewenfeld,3.3.8,m,526.7639000000199,40,word
16,1,M,1,Lentiform Loewenfeld,3.3.8,m,705.3165000000154,40,word
17,1,C,3,Lentiform Loewenfeld,3.3.8,c,705.8397000000405,40,nonword
18,0,C,4,Lentiform Loewenfeld,3.3.8,m,570.3497000000207,40,nonword
19,1,M,4,Lentiform Loewenfeld,3.3.8,m,517.7416000000085,40,word
20,1,M,7,Lentiform Loewenfeld,3.3.8,m,604.9612000000197,40,word
21,1,M,5,Lentiform Loewenfeld,3.3.8,m,448.0385000000242,40,word
22,0,C,3,Lentiform Loewenfeld,3.3.8,m,469.08150000002934,40,nonword
23,0,C,5,Lentiform Loewenfeld,3.3.8,m,776.7551000000385,40,nonword
24,0,M,2,Lentiform Loewenfeld,3.3.8,c,814.6172999999544,40,word
25,1,M,7,Lentiform Loewenfeld,3.3.8,m,650.7769999999728,40,word
26,0,C,3,Lentiform Loewenfeld,3.3.8,m,607.2884999999951,40,nonword
27,1,M,6,Lentiform Loewenfeld,3.3.8,m,447.9073999999673,40,word
28,1,C,3,Lentiform Loewenfeld,3.3.8,c,1275.9557000000204,40,nonword
29,0,C,6,Lentiform Loewenfeld,3.3.8,m,919.0034999999916,40,nonword
30,1,M,4,Lentiform Loewenfeld,3.3.8,m,518.4872999999498,40,word
31,1,C,1,Lentiform Loewenfeld,3.3.8,c,817.9075999999768,40,nonword
32,1,C,7,Lentiform Loewenfeld,3.3.8,c,891.7584999999963,40,nonword
33,0,C,6,Lentiform Loewenfeld,3.3.8,m,536.2662000000128,40,nonword
34,1,C,3,Lentiform Loewenfeld,3.3.8,c,764.6191999999864,40,nonword
35,1,M,2,Lentiform Loewenfeld,3.3.8,m,713.6731999999902,40,word
36,1,C,5,Lentiform Loewenfeld,3.3.8,c,669.2562999999791,40,nonword
37,1,C,6,Lentiform Loewenfeld,3.3.8,c,667.053899999999,40,nonword
38,1,C,4,Lentiform Loewenfeld,3.3.8,c,715.435999999987,40,nonword
39,1,C,3,Lentiform Loewenfeld,3.3.8,c,779.9003000000084,40,nonword
40,1,M,4,Lentiform Loewenfeld,3.3.8,m,583.2848999999987,40,word
41,1,M,5,Lentiform Loewenfeld,3.3.8,m,589.14929999999,40,word
42,1,C,6,Lentiform Loewenfeld,3.3.8,c,665.498499999987,40,nonword
43,1,C,6,Lentiform Loewenfeld,3.3.8,c,657.5395000000135,40,nonword
44,1,C,4,Lentiform Loewenfeld,3.3.8,c,738.7150000000256,40,nonword
45,0,M,7,Lentiform Loewenfeld,3.3.8,c,881.1197999999858,40,word
46,0,C,6,Lentiform Loewenfeld,3.3.8,m,1074.9502999999677,40,nonword
47,1,M,1,Lentiform Loewenfeld,3.3.8,m,560.0596000000078,40,word
48,0,C,7,Lentiform Loewenfeld,3.3.8,m,614.1341999999713,40,nonword
49,0,C,5,Lentiform Loewenfeld,3.3.8,m,846.1474999999919,40,nonword
50,1,M,4,Lentiform Loewenfeld,3.3.8,m,484.8646000000008,40,word
51,1,M,7,Lentiform Loewenfeld,3.3.8,m,460.9487000000372,40,word
52,1,C,5,Lentiform Loewenfeld,3.3.8,c,637.9803999999713,40,nonword
53,1,C,5,Lentiform Loewenfeld,3.3.8,c,700.9549000000115,40,nonword
54,1,M,2,Lentiform Loewenfeld,3.3.8,m,473.75580000001355,40,word
55,1,M,6,Lentiform Loewenfeld,3.3.8,m,880.6702999999688,40,word
56,1,C,2,Lentiform Loewenfeld,3.3.8,c,861.694300000032,40,nonword
57,1,M,7,Lentiform Loewenfeld,3.3.8,m,530.055400000012,40,word
58,1,C,1,Lentiform Loewenfeld,3.3.8,c,626.6727999999712,40,nonword
59,1,C,4,Lentiform Loewenfeld,3.3.8,c,788.0474000000395,40,nonword
60,1,C,6,Lentiform Loewenfeld,3.3.8,c,679.7314999999944,40,nonword
61,1,M,5,Lentiform Loewenfeld,3.3.8,m,600.766399999964,40,word
62,1,M,4,Lentiform Loewenfeld,3.3.8,m,487.7864999999874,40,word
63,1,C,2,Lentiform Loewenfeld,3.3.8,c,599.1768999999622,40,nonword
64,1,M,5,Lentiform Loewenfeld,3.3.8,m,605.1980000000331,40,word
65,1,M,7,Lentiform Loewenfeld,3.3.8,m,592.9190000000526,40,word
66,1,M,2,Lentiform Loewenfeld,3.3.8,m,550.2969999999623,40,word
67,1,C,3,Lentiform Loewenfeld,3.3.8,c,924.7004000000306,40,nonword
68,1,C,4,Lentiform Loewenfeld,3.3.8,c,729.7174999999697,40,nonword
69,1,M,2,Lentiform Loewenfeld,3.3.8,m,673.5501999999979,40,word
70,1,M,2,Lentiform Loewenfeld,3.3.8,m,523.7168000000529,40,word
71,1,C,5,Lentiform Loewenfeld,3.3.8,c,702.7627000000211,40,nonword
72,1,C,5,Lentiform Loewenfeld,3.3.8,c,704.1426999999676,40,nonword
73,1,M,6,Lentiform Loewenfeld,3.3.8,m,468.13059999997495,40,word
74,1,M,1,Lentiform Loewenfeld,3.3.8,m,542.1867999999668,40,word
75,1,M,4,Lentiform Loewenfeld,3.3.8,m,447.38810000004014,40,word
76,1,M,6,Lentiform Loewenfeld,3.3.8,m,356.5969000000041,40,word
77,0,C,3,Lentiform Loewenfeld,3.3.8,m,625.0367000000551,40,nonword
78,0,C,7,Lentiform Loewenfeld,3.3.8,m,613.5918000000529,40,nonword
79,1,M,3,Lentiform Loewenfeld,3.3.8,m,570.1304999999702,40,word
80,1,C,2,Lentiform Loewenfeld,3.3.8,c,565.8098999999929,40,nonword
81,1,C,6,Lentiform Loewenfeld,3.3.8,c,737.5092000000295,40,nonword
82,1,M,2,Lentiform Loewenfeld,3.3.8,m,675.3644999999669,40,word
83,0,C,1,Lentiform Loewenfeld,3.3.8,m,743.5111000000034,40,nonword
84,1,C,6,Lentiform Loewenfeld,3.3.8,c,875.1813000000548,40,nonword
85,1,M,6,Lentiform Loewenfeld,3.3.8,m,644.3809000000474,40,word
86,1,C,5,Lentiform Loewenfeld,3.3.8,c,940.7299999999814,40,nonword
87,0,C,7,Lentiform Loewenfeld,3.3.8,m,580.6782000000239,40,nonword
88,1,M,3,Lentiform Loewenfeld,3.3.8,m,653.2458999999799,40,word
89,1,C,4,Lentiform Loewenfeld,3.3.8,c,644.0830999999889,40,nonword
90,0,C,2,Lentiform Loewenfeld,3.3.8,m,623.2890999999945,40,nonword
91,1,M,4,Lentiform Loewenfeld,3.3.8,m,669.6578999999329,40,word
92,1,C,1,Lentiform Loewenfeld,3.3.8,c,699.2172000000137,40,nonword
93,0,C,3,Lentiform Loewenfeld,3.3.8,m,664.5476999999955,40,nonword
94,1,C,2,Lentiform Loewenfeld,3.3.8,c,883.5645999999833,40,nonword
95,1,M,5,Lentiform Loewenfeld,3.3.8,m,411.36350000003586,40,word
96,1,M,1,Lentiform Loewenfeld,3.3.8,m,603.4504000000306,40,word
97,0,M,1,Lentiform Loewenfeld,3.3.8,c,522.3681000000215,40,word
98,1,M,4,Lentiform Loewenfeld,3.3.8,m,948.2439000000595,40,word
99,1,C,4,Lentiform Loewenfeld,3.3.8,c,672.2434999999823,40,nonword
100,1,M,2,Lentiform Loewenfeld,3.3.8,m,521.5889000000316,40,word
101,1,M,6,Lentiform Loewenfeld,3.3.8,m,746.5037999999477,40,word
102,0,C,4,Lentiform Loewenfeld,3.3.8,m,530.8596000000252,40,nonword
103,1,C,4,Lentiform Loewenfeld,3.3.8,c,705.8937999999616,40,nonword
104,1,M,5,Lentiform Loewenfeld,3.3.8,m,462.37709999998333,40,word
105,1,C,6,Lentiform Loewenfeld,3.3.8,c,651.2607999999891,40,nonword
106,0,C,2,Lentiform Loewenfeld,3.3.8,m,629.3401000000304,40,nonword
107,1,M,7,Lentiform Loewenfeld,3.3.8,m,496.32050000003073,40,word
108,1,M,4,Lentiform Loewenfeld,3.3.8,m,463.7750000000233,40,word
109,1,C,3,Lentiform Loewenfeld,3.3.8,c,635.813199999975,40,nonword
110,1,M,2,Lentiform Loewenfeld,3.3.8,m,568.8521000000183,40,word
111,0,C,3,Lentiform Loewenfeld,3.3.8,m,687.6891999999643,40,nonword
112,1,M,3,Lentiform Loewenfeld,3.3.8,m,616.6983000000473,40,word
113,1,C,4,Lentiform Loewenfeld,3.3.8,c,596.8928000000305,40,nonword
114,0,C,7,Lentiform Loewenfeld,3.3.8,m,739.2681999999913,40,nonword
115,1,M,4,Lentiform Loewenfeld,3.3.8,m,622.6376000000746,40,word
116,1,C,6,Lentiform Loewenfeld,3.3.8,c,948.6428999999771,40,nonword
117,1,M,4,Lentiform Loewenfeld,3.3.8,m,573.141100000008,40,word
118,1,M,6,Lentiform Loewenfeld,3.3.8,m,557.5088000000105,40,word
119,1,C,5,Lentiform Loewenfeld,3.3.8,c,869.564400000032,40,nonword
120,0,C,7,Lentiform Loewenfeld,3.3.8,m,626.0831999999937,40,nonword
121,0,C,7,Lentiform Loewenfeld,3.3.8,m,628.4741999999969,40,nonword
122,1,C,6,Lentiform Loewenfeld,3.3.8,c,803.4953999999561,40,nonword
123,1,M,6,Lentiform Loewenfeld,3.3.8,m,651.8260000000009,40,word
124,1,M,1,Lentiform Loewenfeld,3.3.8,m,1151.0515000000596,40,word
125,0,M,1,Lentiform Loewenfeld,3.3.8,c,742.0022999999928,40,word
126,0,C,1,Lentiform Loewenfeld,3.3.8,m,494.507500000007,40,nonword
127,1,C,2,Lentiform Loewenfeld,3.3.8,c,808.5475999999908,40,nonword
128,1,C,1,Lentiform Loewenfeld,3.3.8,c,835.6987000000081,40,nonword
129,1,C,3,Lentiform Loewenfeld,3.3.8,c,609.2049000000698,40,nonword
130,1,M,5,Lentiform Loewenfeld,3.3.8,m,778.5675000000047,40,word
131,0,M,7,Lentiform Loewenfeld,3.3.8,c,506.0812000000151,40,word
132,1,C,6,Lentiform Loewenfeld,3.3.8,c,620.9557999999379,40,nonword
133,1,M,3,Lentiform Loewenfeld,3.3.8,m,681.9992999999668,40,word
134,1,M,6,Lentiform Loewenfeld,3.3.8,m,547.4099000000278,40,word
135,1,C,7,Lentiform Loewenfeld,3.3.8,c,715.4010999999591,40,nonword
136,1,C,4,Lentiform Loewenfeld,3.3.8,c,699.2940000000526,40,nonword
137,0,M,4,Lentiform Loewenfeld,3.3.8,c,921.2724000000162,40,word
138,1,M,2,Lentiform Loewenfeld,3.3.8,m,546.0984999999637,40,word
139,0,M,1,Lentiform Loewenfeld,3.3.8,c,658.288099999947,40,word
140,1,M,3,Lentiform Loewenfeld,3.3.8,m,524.6455000000424,40,word
141,1,C,3,Lentiform Loewenfeld,3.3.8,c,627.7496000000392,40,nonword
142,1,M,6,Lentiform Loewenfeld,3.3.8,m,513.2674000000115,40,word
143,1,M,5,Lentiform Loewenfeld,3.3.8,m,450.49370000005,40,word
144,0,M,7,Lentiform Loewenfeld,3.3.8,c,578.0443999999552,40,word
145,0,C,5,Lentiform Loewenfeld,3.3.8,m,596.4277999998885,40,nonword
146,1,M,4,Lentiform Loewenfeld,3.3.8,m,523.6229999999632,40,word
147,0,C,1,Lentiform Loewenfeld,3.3.8,m,667.1949000000604,40,nonword
148,1,C,4,Lentiform Loewenfeld,3.3.8,c,630.0999999999767,40,nonword
149,1,M,7,Lentiform Loewenfeld,3.3.8,m,664.4538999999058,40,word
150,0,M,4,Lentiform Loewenfeld,3.3.8,c,464.499599999981,40,word
151,1,M,3,Lentiform Loewenfeld,3.3.8,m,624.0328999999911,40,word
152,1,C,2,Lentiform Loewenfeld,3.3.8,c,652.564500000095,40,nonword
153,1,C,6,Lentiform Loewenfeld,3.3.8,c,650.1188999999431,40,nonword
154,1,C,3,Lentiform Loewenfeld,3.3.8,c,688.3172999999952,40,nonword
155,1,M,2,Lentiform Loewenfeld,3.3.8,m,778.5993999999482,40,word
156,0,M,6,Lentiform Loewenfeld,3.3.8,c,1191.6367999999784,40,word
157,1,C,5,Lentiform Loewenfeld,3.3.8,c,686.0446999999695,40,nonword
158,1,M,7,Lentiform Loewenfeld,3.3.8,m,587.1216999999015,40,word
159,0,M,2,Lentiform Loewenfeld,3.3.8,c,528.6741000000038,40,word
160,1,M,4,Lentiform Loewenfeld,3.3.8,m,718.3114000001224,40,word
161,1,C,2,Lentiform Loewenfeld,3.3.8,c,618.0028000000166,40,nonword
162,1,C,3,Lentiform Loewenfeld,3.3.8,c,612.2051999999676,40,nonword
163,0,C,2,Lentiform Loewenfeld,3.3.8,m,680.9419999999809,40,nonword
164,0,M,1,Lentiform Loewenfeld,3.3.8,c,626.4496000000509,40,word
165,1,M,2,Lentiform Loewenfeld,3.3.8,m,674.9883000000264,40,word
166,1,M,5,Lentiform Loewenfeld,3.3.8,m,521.1287000000011,40,word
167,1,M,6,Lentiform Loewenfeld,3.3.8,m,554.8640000001178,40,word
168,1,C,7,Lentiform Loewenfeld,3.3.8,c,627.0812000000151,40,nonword
169,1,C,4,Lentiform Loewenfeld,3.3.8,c,769.9696999999578,40,nonword
170,1,C,4,Lentiform Loewenfeld,3.3.8,c,552.9756000000052,40,nonword
171,1,M,1,Lentiform Loewenfeld,3.3.8,m,627.0181999999913,40,word
172,1,C,3,Lentiform Loewenfeld,3.3.8,c,815.2235999999684,40,nonword
173,1,C,1,Lentiform Loewenfeld,3.3.8,c,703.233600000036,40,nonword
174,1,M,6,Lentiform Loewenfeld,3.3.8,m,491.09069999994244,40,word
175,1,M,1,Lentiform Loewenfeld,3.3.8,m,895.4630000001052,40,word
176,1,M,5,Lentiform Loewenfeld,3.3.8,m,482.2795000000042,40,word
177,1,M,5,Lentiform Loewenfeld,3.3.8,m,567.4868000000133,40,word
178,1,C,6,Lentiform Loewenfeld,3.3.8,c,781.2767000000458,40,nonword
179,1,C,1,Lentiform Loewenfeld,3.3.8,c,595.7246999999043,40,nonword
180,1,C,5,Lentiform Loewenfeld,3.3.8,c,563.9738999999827,40,nonword
181,0,C,2,Lentiform Loewenfeld,3.3.8,m,607.4105000000563,40,nonword
182,1,M,5,Lentiform Loewenfeld,3.3.8,m,554.7624000000069,40,word
183,1,C,2,Lentiform Loewenfeld,3.3.8,c,729.6294000000344,40,nonword
184,1,C,1,Lentiform Loewenfeld,3.3.8,c,570.4360000001034,40,nonword
185,1,C,3,Lentiform Loewenfeld,3.3.8,c,559.1206999999704,40,nonword
186,1,C,1,Lentiform Loewenfeld,3.3.8,c,469.8278999999165,40,nonword
187,1,M,1,Lentiform Loewenfeld,3.3.8,m,682.3717999999644,40,word
188,1,M,5,Lentiform Loewenfeld,3.3.8,m,510.4185999999754,40,word
189,1,C,3,Lentiform Loewenfeld,3.3.8,c,597.1254999999655,40,nonword
190,0,M,7,Lentiform Loewenfeld,3.3.8,c,632.9935999999288,40,word
191,0,M,1,Lentiform Loewenfeld,3.3.8,c,551.5120000001043,40,word
192,1,M,2,Lentiform Loewenfeld,3.3.8,m,812.5708999999333,40,word
193,1,C,2,Lentiform Loewenfeld,3.3.8,c,643.624199999962,40,nonword
194,1,M,3,Lentiform Loewenfeld,3.3.8,m,602.1454000000376,40,word
195,1,M,7,Lentiform Loewenfeld,3.3.8,m,314.38690000004135,40,word
196,1,M,5,Lentiform Loewenfeld,3.3.8,m,349.23240000009537,40,word
197,1,C,5,Lentiform Loewenfeld,3.3.8,c,592.9875999999931,40,nonword
198,1,M,1,Lentiform Loewenfeld,3.3.8,m,659.5108999999939,40,word
199,1,C,3,Lentiform Loewenfeld,3.3.8,c,660.0299999999115,40,nonword
200,0,C,4,Lentiform Loewenfeld,3.3.8,m,459.06359999999404,40,nonword
201,1,M,7,Lentiform Loewenfeld,3.3.8,m,603.9028000000399,40,word
202,1,M,5,Lentiform Loewenfeld,3.3.8,m,394.9629999999888,40,word
203,1,M,4,Lentiform Loewenfeld,3.3.8,m,365.7563000000082,40,word
204,1,M,2,Lentiform Loewenfeld,3.3.8,m,548.2569999999832,40,word
205,1,C,4,Lentiform Loewenfeld,3.3.8,c,536.204299999983,40,nonword
206,1,M,6,Lentiform Loewenfeld,3.3.8,m,370.02739999990445,40,word
207,1,C,4,Lentiform Loewenfeld,3.3.8,c,581.1132000000216,40,nonword
208,1,M,4,Lentiform Loewenfeld,3.3.8,m,608.6339000000153,40,word
209,1,M,3,Lentiform Loewenfeld,3.3.8,m,430.3125000001164,40,word
210,0,M,2,Lentiform Loewenfeld,3.3.8,c,586.7199000000255,40,word
211,1,M,3,Lentiform Loewenfeld,3.3.8,m,420.08749999990687,40,word
212,0,C,7,Lentiform Loewenfeld,3.3.8,m,329.8499999999767,40,nonword
213,0,C,5,Lentiform Loewenfeld,3.3.8,m,420.05400000012014,40,nonword
214,0,C,3,Lentiform Loewenfeld,3.3.8,m,489.16460000001825,40,nonword
215,1,C,2,Lentiform Loewenfeld,3.3.8,c,527.8668999999063,40,nonword
216,0,M,3,Lentiform Loewenfeld,3.3.8,c,517.6146000000881,40,word
217,1,M,6,Lentiform Loewenfeld,3.3.8,m,481.5320000000065,40,word
218,1,M,3,Lentiform Loewenfeld,3.3.8,m,342.8817000000272,40,word
219,1,C,5,Lentiform Loewenfeld,3.3.8,c,574.0940999998711,40,nonword
220,1,M,5,Lentiform Loewenfeld,3.3.8,m,407.3287999999011,40,word
221,1,C,6,Lentiform Loewenfeld,3.3.8,c,568.7081999999937,40,nonword
222,0,M,6,Lentiform Loewenfeld,3.3.8,c,629.0670000000391,40,word
223,1,C,4,Lentiform Loewenfeld,3.3.8,c,699.1245000000345,40,nonword
224,1,M,2,Lentiform Loewenfeld,3.3.8,m,540.6604000000516,40,word
225,1,C,1,Lentiform Loewenfeld,3.3.8,c,564.0370000000112,40,nonword
226,0,C,4,Lentiform Loewenfeld,3.3.8,m,611.7336999999825,40,nonword
227,1,C,7,Lentiform Loewenfeld,3.3.8,c,660.4181000001263,40,nonword
228,1,M,1,Lentiform Loewenfeld,3.3.8,m,812.6165000000037,40,word
229,1,M,3,Lentiform Loewenfeld,3.3.8,m,573.4507000000449,40,word
230,1,M,1,Lentiform Loewenfeld,3.3.8,m,502.0273000000743,40,word
231,1,M,3,Lentiform Loewenfeld,3.3.8,m,561.3947000000626,40,word
232,0,C,1,Lentiform Loewenfeld,3.3.8,m,485.8035999999847,40,nonword
233,1,M,6,Lentiform Loewenfeld,3.3.8,m,715.515000000014,40,word
234,1,C,1,Lentiform Loewenfeld,3.3.8,c,718.0827000000281,40,nonword
235,1,C,2,Lentiform Loewenfeld,3.3.8,c,604.0713999998989,40,nonword
236,1,M,7,Lentiform Loewenfeld,3.3.8,m,659.4325000001118,40,word
237,1,C,3,Lentiform Loewenfeld,3.3.8,c,735.9597999999532,40,nonword
238,1,C,3,Lentiform Loewenfeld,3.3.8,c,661.5885999999009,40,nonword
239,0,C,5,Lentiform Loewenfeld,3.3.8,m,515.9651999999769,40,nonword
240,1,M,1,Lentiform Loewenfeld,3.3.8,m,437.8705999999074,40,word
241,1,M,4,Lentiform Loewenfeld,3.3.8,m,467.7888999999268,40,word
242,1,C,2,Lentiform Loewenfeld,3.3.8,c,550.9981999999145,40,nonword
243,1,C,6,Lentiform Loewenfeld,3.3.8,c,636.720500000054,40,nonword
244,1,C,5,Lentiform Loewenfeld,3.3.8,c,701.9133000000147,40,nonword
245,1,M,5,Lentiform Loewenfeld,3.3.8,m,605.7795000000624,40,word
246,0,M,1,Lentiform Loewenfeld,3.3.8,c,725.8795999999857,40,word
247,0,C,3,Lentiform Loewenfeld,3.3.8,m,832.231599999941,40,nonword
248,1,M,3,Lentiform Loewenfeld,3.3.8,m,384.85779999999795,40,word
249,0,C,6,Lentiform Loewenfeld,3.3.8,m,588.6317999999737,40,nonword
250,1,C,6,Lentiform Loewenfeld,3.3.8,c,751.9732000000076,40,nonword
251,0,C,7,Lentiform Loewenfeld,3.3.8,m,779.953600000008,40,nonword
252,1,M,3,Lentiform Loewenfeld,3.3.8,m,498.29920000000857,40,word
253,0,C,2,Lentiform Loewenfeld,3.3.8,m,850.6773000000976,40,nonword
254,1,M,3,Lentiform Loewenfeld,3.3.8,m,500.8471000000136,40,word
255,1,C,7,Lentiform Loewenfeld,3.3.8,c,532.2361000000965,40,nonword
256,0,C,2,Lentiform Loewenfeld,3.3.8,m,625.0036000000546,40,nonword
257,1,M,1,Lentiform Loewenfeld,3.3.8,m,444.51620000007097,40,word
258,1,M,2,Lentiform Loewenfeld,3.3.8,m,440.079000000027,40,word
259,0,C,5,Lentiform Loewenfeld,3.3.8,m,631.452500000014,40,nonword
260,1,C,7,Lentiform Loewenfeld,3.3.8,c,765.654899999965,40,nonword
261,1,C,4,Lentiform Loewenfeld,3.3.8,c,577.8351000000257,40,nonword
262,1,C,6,Lentiform Loewenfeld,3.3.8,c,597.1769000000786,40,nonword
263,1,M,4,Lentiform Loewenfeld,3.3.8,m,633.7445000000298,40,word
264,1,M,7,Lentiform Loewenfeld,3.3.8,m,511.2571999999928,40,word
265,1,M,4,Lentiform Loewenfeld,3.3.8,m,728.7698000000091,40,word
266,1,M,4,Lentiform Loewenfeld,3.3.8,m,488.64830000000075,40,word
267,1,C,1,Lentiform Loewenfeld,3.3.8,c,828.8601000001654,40,nonword
268,1,M,7,Lentiform Loewenfeld,3.3.8,m,560.2613999999594,40,word
269,1,M,4,Lentiform Loewenfeld,3.3.8,m,425.17190000007395,40,word
270,0,C,6,Lentiform Loewenfeld,3.3.8,m,465.5241999999853,40,nonword
271,1,M,6,Lentiform Loewenfeld,3.3.8,m,497.57519999996293,40,word
272,1,C,1,Lentiform Loewenfeld,3.3.8,c,566.9163000000408,40,nonword
273,1,M,3,Lentiform Loewenfeld,3.3.8,m,573.8617999999551,40,word
274,1,M,4,Lentiform Loewenfeld,3.3.8,m,487.04839999997057,40,word
275,0,C,6,Lentiform Loewenfeld,3.3.8,m,486.0741000000853,40,nonword
276,1,M,2,Lentiform Loewenfeld,3.3.8,m,478.1056000000099,40,word
277,1,M,6,Lentiform Loewenfeld,3.3.8,m,573.1407999999356,40,word
278,1,C,6,Lentiform Loewenfeld,3.3.8,c,728.5322999999626,40,nonword
279,0,C,7,Lentiform Loewenfeld,3.3.8,m,591.4054999999935,40,nonword
280,0,C,2,Lentiform Loewenfeld,3.3.8,m,410.90629999991506,40,nonword
281,0,C,4,Lentiform Loewenfeld,3.3.8,m,545.9888999999966,40,nonword
282,1,M,5,Lentiform Loewenfeld,3.3.8,m,538.8581000000704,40,word
283,0,C,2,Lentiform Loewenfeld,3.3.8,m,460.5722999999998,40,nonword
284,1,C,2,Lentiform Loewenfeld,3.3.8,c,725.2870000000112,40,nonword
285,1,M,7,Lentiform Loewenfeld,3.3.8,m,751.1612999999197,40,word
286,1,M,1,Lentiform Loewenfeld,3.3.8,m,595.83050000004,40,word
287,1,M,6,Lentiform Loewenfeld,3.3.8,m,558.8838000000687,40,word
288,1,C,2,Lentiform Loewenfeld,3.3.8,c,512.0390000001062,40,nonword
289,1,M,1,Lentiform Loewenfeld,3.3.8,m,528.5875999998534,40,word
290,0,C,5,Lentiform Loewenfeld,3.3.8,m,664.5936999999685,40,nonword
291,0,C,4,Lentiform Loewenfeld,3.3.8,m,571.9453999998514,40,nonword
292,1,C,5,Lentiform Loewenfeld,3.3.8,c,577.1857999999775,40,nonword
293,0,C,7,Lentiform Loewenfeld,3.3.8,m,660.2556999999797,40,nonword
294,1,M,1,Lentiform Loewenfeld,3.3.8,m,511.2722000000067,40,word
295,1,C,2,Lentiform Loewenfeld,3.3.8,c,579.9619000001112,40,nonword
296,1,M,3,Lentiform Loewenfeld,3.3.8,m,676.2024999998976,40,word
297,1,C,7,Lentiform Loewenfeld,3.3.8,c,685.0399999999208,40,nonword
298,1,M,6,Lentiform Loewenfeld,3.3.8,m,508.0958999999566,40,word
299,1,M,7,Lentiform Loewenfeld,3.3.8,m,465.9643000001088,40,word
300,1,C,7,Lentiform Loewenfeld,3.3.8,c,577.3480999999447,40,nonword
301,0,C,6,Lentiform Loewenfeld,3.3.8,m,480.5731000000378,40,nonword
302,1,C,6,Lentiform Loewenfeld,3.3.8,c,624.2713999999687,40,nonword
303,1,M,7,Lentiform Loewenfeld,3.3.8,m,556.1209999999264,40,word
304,1,M,2,Lentiform Loewenfeld,3.3.8,m,781.1405000000959,40,word
305,0,M,3,Lentiform Loewenfeld,3.3.8,c,582.1388999999035,40,word
306,1,C,6,Lentiform Loewenfeld,3.3.8,c,608.1908999999287,40,nonword
307,1,C,7,Lentiform Loewenfeld,3.3.8,c,603.734999999986,40,nonword
308,0,C,2,Lentiform Loewenfeld,3.3.8,m,603.3106000000844,40,nonword
309,1,C,4,Lentiform Loewenfeld,3.3.8,c,724.299100000062,40,nonword
310,1,M,1,Lentiform Loewenfeld,3.3.8,m,697.1441000000341,40,word
311,1,C,4,Lentiform Loewenfeld,3.3.8,c,622.6943000000902,40,nonword
312,1,M,4,Lentiform Loewenfeld,3.3.8,m,458.2419000000227,40,word
313,0,M,5,Lentiform Loewenfeld,3.3.8,c,905.7887999999803,40,word
314,1,C,3,Lentiform Loewenfeld,3.3.8,c,796.7623000000603,40,nonword
315,1,M,3,Lentiform Loewenfeld,3.3.8,m,507.9733999999007,40,word
316,1,M,2,Lentiform Loewenfeld,3.3.8,m,582.7007999999914,40,word
317,1,M,6,Lentiform Loewenfeld,3.3.8,m,655.2196000000695,40,word
318,0,C,2,Lentiform Loewenfeld,3.3.8,m,777.2896999999648,40,nonword
319,0,C,6,Lentiform Loewenfeld,3.3.8,m,496.2854000000516,40,nonword
320,1,M,1,Lentiform Loewenfeld,3.3.8,m,665.5655999999726,40,word
321,1,C,6,Lentiform Loewenfeld,3.3.8,c,614.420700000017,40,nonword
322,1,M,2,Lentiform Loewenfeld,3.3.8,m,493.6354000000283,40,word
323,1,C,1,Lentiform Loewenfeld,3.3.8,c,576.8399999999674,40,nonword
324,1,C,1,Lentiform Loewenfeld,3.3.8,c,530.5300000000279,40,nonword
325,1,M,5,Lentiform Loewenfeld,3.3.8,m,614.3120000000345,40,word
326,1,C,1,Lentiform Loewenfeld,3.3.8,c,536.1348999999464,40,nonword
327,0,M,1,Lentiform Loewenfeld,3.3.8,c,506.3323000000091,40,word
328,1,M,4,Lentiform Loewenfeld,3.3.8,m,609.5470000001369,40,word
329,1,M,4,Lentiform Loewenfeld,3.3.8,m,685.2522000001045,40,word
330,1,C,1,Lentiform Loewenfeld,3.3.8,c,766.7395999998553,40,nonword
331,1,C,2,Lentiform Loewenfeld,3.3.8,c,639.9693999998271,40,nonword
332,1,C,3,Lentiform Loewenfeld,3.3.8,c,843.6303999999072,40,nonword
333,1,C,7,Lentiform Loewenfeld,3.3.8,c,595.6256000001449,40,nonword
334,1,M,6,Lentiform Loewenfeld,3.3.8,m,601.1293000000296,40,word
335,1,M,1,Lentiform Loewenfeld,3.3.8,m,596.0017000000225,40,word
336,1,M,3,Lentiform Loewenfeld,3.3.8,m,587.3692000001902,40,word
337,1,M,6,Lentiform Loewenfeld,3.3.8,m,718.7485000001034,40,word
338,1,C,5,Lentiform Loewenfeld,3.3.8,c,740.3016999998363,40,nonword
339,1,M,5,Lentiform Loewenfeld,3.3.8,m,573.9527999998536,40,word
340,1,M,2,Lentiform Loewenfeld,3.3.8,m,528.5014999997802,40,word
341,1,C,4,Lentiform Loewenfeld,3.3.8,c,605.2210999999661,40,nonword
342,0,C,7,Lentiform Loewenfeld,3.3.8,m,834.5742999999784,40,nonword
343,1,M,7,Lentiform Loewenfeld,3.3.8,m,569.0594999999739,40,word
344,0,C,7,Lentiform Loewenfeld,3.3.8,m,880.2865999999922,40,nonword
345,0,C,5,Lentiform Loewenfeld,3.3.8,m,500.450899999938,40,nonword
346,1,M,5,Lentiform Loewenfeld,3.3.8,m,549.5174999999581,40,word
347,1,M,7,Lentiform Loewenfeld,3.3.8,m,567.355799999903,40,word
348,1,C,2,Lentiform Loewenfeld,3.3.8,c,577.562200000044,40,nonword
349,0,C,4,Lentiform Loewenfeld,3.3.8,m,899.4161999998614,40,nonword
350,1,C,1,Lentiform Loewenfeld,3.3.8,c,829.2829999999376,40,nonword
351,1,M,4,Lentiform Loewenfeld,3.3.8,m,750.7532999999821,40,word
352,1,M,5,Lentiform Loewenfeld,3.3.8,m,734.9462999999523,40,word
353,1,C,5,Lentiform Loewenfeld,3.3.8,c,798.2725000000792,40,nonword
354,0,M,4,Lentiform Loewenfeld,3.3.8,c,813.4651000000304,40,word
355,1,M,2,Lentiform Loewenfeld,3.3.8,m,803.6733999999706,40,word
356,1,M,3,Lentiform Loewenfeld,3.3.8,m,553.3499000001466,40,word
357,1,C,1,Lentiform Loewenfeld,3.3.8,c,684.3953000002075,40,nonword
358,1,C,7,Lentiform Loewenfeld,3.3.8,c,562.0457999999635,40,nonword
359,1,M,5,Lentiform Loewenfeld,3.3.8,m,266.9417999999132,40,word
360,1,C,1,Lentiform Loewenfeld,3.3.8,c,598.1445999999996,40,nonword
361,1,M,1,Lentiform Loewenfeld,3.3.8,m,362.6079000000609,40,word
362,1,M,7,Lentiform Loewenfeld,3.3.8,m,403.60329999995884,40,word
363,1,M,3,Lentiform Loewenfeld,3.3.8,m,413.47010000015143,40,word
364,1,M,6,Lentiform Loewenfeld,3.3.8,m,406.2296000000788,40,word
365,1,C,1,Lentiform Loewenfeld,3.3.8,c,363.95819999999367,40,nonword
366,0,C,1,Lentiform Loewenfeld,3.3.8,m,314.033000000054,40,nonword
367,1,C,7,Lentiform Loewenfeld,3.3.8,c,826.762999999919,40,nonword
368,1,M,6,Lentiform Loewenfeld,3.3.8,m,490.26009999995586,40,word
369,0,M,3,Lentiform Loewenfeld,3.3.8,c,475.1496000000043,40,word
370,0,C,5,Lentiform Loewenfeld,3.3.8,m,413.52720000001136,40,nonword
371,1,C,6,Lentiform Loewenfeld,3.3.8,c,627.9621999999508,40,nonword
372,1,M,5,Lentiform Loewenfeld,3.3.8,m,392.6210999999893,40,word
373,1,M,7,Lentiform Loewenfeld,3.3.8,m,553.4860999999801,40,word
374,1,M,7,Lentiform Loewenfeld,3.3.8,m,389.04059999994934,40,word
375,1,M,5,Lentiform Loewenfeld,3.3.8,m,407.9344999999739,40,word
376,1,C,1,Lentiform Loewenfeld,3.3.8,c,459.38789999997243,40,nonword
377,1,M,6,Lentiform Loewenfeld,3.3.8,m,414.6217000001343,40,word
378,0,C,4,Lentiform Loewenfeld,3.3.8,m,490.47970000002533,40,nonword
379,1,M,3,Lentiform Loewenfeld,3.3.8,m,455.0222000000067,40,word
380,0,M,1,Lentiform Loewenfeld,3.3.8,c,424.53389999992214,40,word
381,1,C,3,Lentiform Loewenfeld,3.3.8,c,1021.157200000016,40,nonword
382,1,M,5,Lentiform Loewenfeld,3.3.8,m,380.95899999979883,40,word
383,1,C,7,Lentiform Loewenfeld,3.3.8,c,595.5150999999605,40,nonword
384,1,C,1,Lentiform Loewenfeld,3.3.8,c,511.187099999981,40,nonword
385,1,C,7,Lentiform Loewenfeld,3.3.8,c,754.0867999999318,40,nonword
386,1,C,3,Lentiform Loewenfeld,3.3.8,c,493.9288999999408,40,nonword
387,0,M,3,Lentiform Loewenfeld,3.3.8,c,530.2468000000808,40,word
388,1,M,1,Lentiform Loewenfeld,3.3.8,m,519.3887000000104,40,word
389,1,C,1,Lentiform Loewenfeld,3.3.8,c,735.5712999999523,40,nonword
390,1,M,6,Lentiform Loewenfeld,3.3.8,m,457.42109999991953,40,word
391,0,C,1,Lentiform Loewenfeld,3.3.8,m,353.2724000001326,40,nonword
392,0,C,5,Lentiform Loewenfeld,3.3.8,m,552.5150000001304,40,nonword
393,1,M,5,Lentiform Loewenfeld,3.3.8,m,497.24370000022464,40,word
394,1,C,3,Lentiform Loewenfeld,3.3.8,c,690.2278000002261,40,nonword
395,0,C,2,Lentiform Loewenfeld,3.3.8,m,683.9674999997951,40,nonword
396,1,M,2,Lentiform Loewenfeld,3.3.8,m,610.6691999998875,40,word
397,1,C,2,Lentiform Loewenfeld,3.3.8,c,296.19739999994636,40,nonword
398,1,C,7,Lentiform Loewenfeld,3.3.8,c,288.44160000025295,40,nonword
399,1,C,1,Lentiform Loewenfeld,3.3.8,c,659.9636999999639,40,nonword
400,1,C,5,Lentiform Loewenfeld,3.3.8,c,586.338099999819,40,nonword
401,1,M,7,Lentiform Loewenfeld,3.3.8,m,591.8668000001926,40,word
402,0,M,3,Lentiform Loewenfeld,3.3.8,c,528.8976000000257,40,word
403,0,C,4,Lentiform Loewenfeld,3.3.8,m,495.7849999999162,40,nonword
404,1,M,4,Lentiform Loewenfeld,3.3.8,m,609.527499999851,40,word
405,1,M,3,Lentiform Loewenfeld,3.3.8,m,324.8369999998249,40,word
406,1,M,6,Lentiform Loewenfeld,3.3.8,m,396.2434000002686,40,word
407,1,M,7,Lentiform Loewenfeld,3.3.8,m,487.3507999998983,40,word
408,1,C,2,Lentiform Loewenfeld,3.3.8,c,601.2580999999773,40,nonword
409,1,C,4,Lentiform Loewenfeld,3.3.8,c,545.096600000048,40,nonword
410,1,M,5,Lentiform Loewenfeld,3.3.8,m,460.7908999999054,40,word
411,0,M,7,Lentiform Loewenfeld,3.3.8,c,470.8151000000071,40,word
412,1,M,2,Lentiform Loewenfeld,3.3.8,m,340.11349999997765,40,word
413,0,M,7,Lentiform Loewenfeld,3.3.8,c,578.840499999933,40,word
414,0,C,4,Lentiform Loewenfeld,3.3.8,m,386.0241000000388,40,nonword
415,0,C,5,Lentiform Loewenfeld,3.3.8,m,695.6041000001132,40,nonword
416,1,C,7,Lentiform Loewenfeld,3.3.8,c,612.7843999997713,40,nonword
417,1,M,2,Lentiform Loewenfeld,3.3.8,m,636.9727000000421,40,word
418,1,M,2,Lentiform Loewenfeld,3.3.8,m,564.6598000000231,40,word
419,0,C,5,Lentiform Loewenfeld,3.3.8,m,533.6955999999773,40,nonword
