Unnamed: 0,correct_keyboard_response_1,correct_response,flanker_condition,opensesame_codename,opensesame_version,response_keyboard_response_1,response_time_keyboard_response_1,subject_nr,target_type
0,0,M,1,Lentiform Loewenfeld,3.3.8,c,1751.9033000000054,34,word
1,1,C,6,Lentiform Loewenfeld,3.3.8,c,619.5462000000116,34,nonword
2,1,C,2,Lentiform Loewenfeld,3.3.8,c,590.8125999999756,34,nonword
3,1,C,1,Lentiform Loewenfeld,3.3.8,c,652.6253999999899,34,nonword
4,1,M,2,Lentiform Loewenfeld,3.3.8,m,853.3273999999801,34,word
5,1,C,4,Lentiform Loewenfeld,3.3.8,c,1366.21179999999,34,nonword
6,0,C,2,Lentiform Loewenfeld,3.3.8,m,1639.9281999999948,34,nonword
7,1,M,1,Lentiform Loewenfeld,3.3.8,m,635.3686999999918,34,word
8,1,C,7,Lentiform Loewenfeld,3.3.8,c,1846.1386000000348,34,nonword
9,1,C,3,Lentiform Loewenfeld,3.3.8,c,779.6135000000068,34,nonword
10,1,C,7,Lentiform Loewenfeld,3.3.8,c,854.6908999999869,34,nonword
11,1,M,4,Lentiform Loewenfeld,3.3.8,m,746.9237999999605,34,word
12,1,C,4,Lentiform Loewenfeld,3.3.8,c,798.0462000000116,34,nonword
13,1,M,6,Lentiform Loewenfeld,3.3.8,m,692.2627000000502,34,word
14,1,M,1,Lentiform Loewenfeld,3.3.8,m,732.4225000000151,34,word
15,1,M,4,Lentiform Loewenfeld,3.3.8,m,830.2950999999593,34,word
16,1,M,5,Lentiform Loewenfeld,3.3.8,m,560.6819000000542,34,word
17,1,C,1,Lentiform Loewenfeld,3.3.8,c,751.6184999999823,34,nonword
18,1,C,3,Lentiform Loewenfeld,3.3.8,c,876.2052999999432,34,nonword
19,1,C,5,Lentiform Loewenfeld,3.3.8,c,891.2954999999783,34,nonword
20,0,C,7,Lentiform Loewenfeld,3.3.8,m,697.3016999999818,34,nonword
21,0,M,5,Lentiform Loewenfeld,3.3.8,,2150.0283000000045,34,word
22,1,M,4,Lentiform Loewenfeld,3.3.8,m,808.711100000015,34,word
23,1,C,2,Lentiform Loewenfeld,3.3.8,c,786.0911999999953,34,nonword
24,1,M,7,Lentiform Loewenfeld,3.3.8,m,1449.6843999999985,34,word
25,1,M,2,Lentiform Loewenfeld,3.3.8,m,642.5293000000238,34,word
26,1,C,6,Lentiform Loewenfeld,3.3.8,c,608.937900000019,34,nonword
27,1,C,3,Lentiform Loewenfeld,3.3.8,c,823.7183999999834,34,nonword
28,1,C,7,Lentiform Loewenfeld,3.3.8,c,841.1245000000054,34,nonword
29,1,M,1,Lentiform Loewenfeld,3.3.8,m,561.876500000013,34,word
30,1,M,2,Lentiform Loewenfeld,3.3.8,m,526.9725999999791,34,word
31,1,M,5,Lentiform Loewenfeld,3.3.8,m,350.38020000004326,34,word
32,1,M,1,Lentiform Loewenfeld,3.3.8,m,513.494800000015,34,word
33,1,C,5,Lentiform Loewenfeld,3.3.8,c,793.4303000000364,34,nonword
34,1,C,7,Lentiform Loewenfeld,3.3.8,c,952.0317000000505,34,nonword
35,1,M,4,Lentiform Loewenfeld,3.3.8,m,1270.2808999999545,34,word
36,1,M,5,Lentiform Loewenfeld,3.3.8,m,627.5026000000362,34,word
37,1,M,6,Lentiform Loewenfeld,3.3.8,m,547.2289999999921,34,word
38,1,M,3,Lentiform Loewenfeld,3.3.8,m,538.494399999996,34,word
39,1,C,7,Lentiform Loewenfeld,3.3.8,c,1391.1285999999673,34,nonword
40,1,C,2,Lentiform Loewenfeld,3.3.8,c,830.1327999999921,34,nonword
41,1,C,1,Lentiform Loewenfeld,3.3.8,c,1334.0485000000044,34,nonword
42,1,M,6,Lentiform Loewenfeld,3.3.8,m,1070.872400000022,34,word
43,1,C,4,Lentiform Loewenfeld,3.3.8,c,757.5834999999497,34,nonword
44,1,C,7,Lentiform Loewenfeld,3.3.8,c,1069.8628999999783,34,nonword
45,1,C,2,Lentiform Loewenfeld,3.3.8,c,725.374599999981,34,nonword
46,1,M,2,Lentiform Loewenfeld,3.3.8,m,618.4636999999639,34,word
47,1,M,7,Lentiform Loewenfeld,3.3.8,m,686.2082999999984,34,word
48,1,M,5,Lentiform Loewenfeld,3.3.8,m,1887.7964999999967,34,word
49,1,M,5,Lentiform Loewenfeld,3.3.8,m,563.1048000000301,34,word
50,1,C,1,Lentiform Loewenfeld,3.3.8,c,603.724899999972,34,nonword
51,1,M,1,Lentiform Loewenfeld,3.3.8,m,883.1601000000373,34,word
52,1,C,3,Lentiform Loewenfeld,3.3.8,c,829.0485000000335,34,nonword
53,1,C,1,Lentiform Loewenfeld,3.3.8,c,1336.2914000000455,34,nonword
54,0,M,1,Lentiform Loewenfeld,3.3.8,c,871.829700000002,34,word
55,1,M,6,Lentiform Loewenfeld,3.3.8,m,586.9360000000452,34,word
56,1,M,2,Lentiform Loewenfeld,3.3.8,m,644.4716999999946,34,word
57,1,M,7,Lentiform Loewenfeld,3.3.8,m,812.6878000000142,34,word
58,1,C,1,Lentiform Loewenfeld,3.3.8,c,718.3014999999432,34,nonword
59,1,C,4,Lentiform Loewenfeld,3.3.8,c,739.3863000000129,34,nonword
60,1,M,7,Lentiform Loewenfeld,3.3.8,m,664.2929999999469,34,word
61,0,M,7,Lentiform Loewenfeld,3.3.8,c,1060.8670000000275,34,word
62,1,C,1,Lentiform Loewenfeld,3.3.8,c,669.9180000000051,34,nonword
63,1,C,5,Lentiform Loewenfeld,3.3.8,c,987.9957000000286,34,nonword
64,1,M,1,Lentiform Loewenfeld,3.3.8,m,508.85839999996824,34,word
65,1,M,7,Lentiform Loewenfeld,3.3.8,m,1490.276200000022,34,word
66,1,C,3,Lentiform Loewenfeld,3.3.8,c,711.905700000003,34,nonword
67,1,C,5,Lentiform Loewenfeld,3.3.8,c,688.0004000000772,34,nonword
68,1,M,2,Lentiform Loewenfeld,3.3.8,m,610.3014999999432,34,word
69,1,C,6,Lentiform Loewenfeld,3.3.8,c,831.5549999999348,34,nonword
70,1,M,5,Lentiform Loewenfeld,3.3.8,m,1017.619000000006,34,word
71,1,C,2,Lentiform Loewenfeld,3.3.8,c,873.6589999999851,34,nonword
72,0,C,2,Lentiform Loewenfeld,3.3.8,,2150.031000000017,34,nonword
73,0,C,7,Lentiform Loewenfeld,3.3.8,,2150.026400000032,34,nonword
74,1,M,5,Lentiform Loewenfeld,3.3.8,m,770.5671000000439,34,word
75,1,C,6,Lentiform Loewenfeld,3.3.8,c,774.0768999999855,34,nonword
76,1,M,4,Lentiform Loewenfeld,3.3.8,m,567.007099999988,34,word
77,1,M,5,Lentiform Loewenfeld,3.3.8,m,617.6023999999161,34,word
78,0,M,3,Lentiform Loewenfeld,3.3.8,c,709.2567999999737,34,word
79,1,M,3,Lentiform Loewenfeld,3.3.8,m,682.9643999999389,34,word
80,1,C,6,Lentiform Loewenfeld,3.3.8,c,866.4052999999258,34,nonword
81,0,C,6,Lentiform Loewenfeld,3.3.8,m,906.3565999999992,34,nonword
82,1,M,3,Lentiform Loewenfeld,3.3.8,m,710.2143999999389,34,word
83,1,M,2,Lentiform Loewenfeld,3.3.8,m,935.8463999999221,34,word
84,1,C,1,Lentiform Loewenfeld,3.3.8,c,864.4942000000156,34,nonword
85,1,C,1,Lentiform Loewenfeld,3.3.8,c,1214.5802000000258,34,nonword
86,1,C,5,Lentiform Loewenfeld,3.3.8,c,961.6103000000003,34,nonword
87,1,C,5,Lentiform Loewenfeld,3.3.8,c,662.2835999999661,34,nonword
88,1,M,6,Lentiform Loewenfeld,3.3.8,m,679.4120999999577,34,word
89,1,M,2,Lentiform Loewenfeld,3.3.8,m,712.6398999998928,34,word
90,0,C,6,Lentiform Loewenfeld,3.3.8,m,952.7551000000094,34,nonword
91,1,C,2,Lentiform Loewenfeld,3.3.8,c,718.8017000000109,34,nonword
92,1,C,4,Lentiform Loewenfeld,3.3.8,c,1073.400399999984,34,nonword
93,1,C,6,Lentiform Loewenfeld,3.3.8,c,676.6435000000056,34,nonword
94,1,M,6,Lentiform Loewenfeld,3.3.8,m,681.2037999999593,34,word
95,1,C,5,Lentiform Loewenfeld,3.3.8,c,718.8083999999799,34,nonword
96,1,M,6,Lentiform Loewenfeld,3.3.8,m,766.1156999999075,34,word
97,0,M,6,Lentiform Loewenfeld,3.3.8,c,815.9688999999198,34,word
98,1,M,5,Lentiform Loewenfeld,3.3.8,m,638.2318999999552,34,word
99,1,M,3,Lentiform Loewenfeld,3.3.8,m,721.8182999999844,34,word
100,1,C,2,Lentiform Loewenfeld,3.3.8,c,742.03190000006,34,nonword
101,1,C,3,Lentiform Loewenfeld,3.3.8,c,891.1262999998871,34,nonword
102,1,M,1,Lentiform Loewenfeld,3.3.8,m,642.8495000000694,34,word
103,1,M,6,Lentiform Loewenfeld,3.3.8,m,614.9289999999455,34,word
104,1,M,2,Lentiform Loewenfeld,3.3.8,m,556.5061999999452,34,word
105,1,C,5,Lentiform Loewenfeld,3.3.8,c,593.2838999999803,34,nonword
106,1,C,4,Lentiform Loewenfeld,3.3.8,c,722.5774999999558,34,nonword
107,1,C,7,Lentiform Loewenfeld,3.3.8,c,868.4872999999789,34,nonword
108,1,M,5,Lentiform Loewenfeld,3.3.8,m,890.3821000000462,34,word
109,1,C,3,Lentiform Loewenfeld,3.3.8,c,1127.2669999999925,34,nonword
110,1,M,6,Lentiform Loewenfeld,3.3.8,m,797.4806000000099,34,word
111,1,M,5,Lentiform Loewenfeld,3.3.8,m,1352.565399999905,34,word
112,1,M,3,Lentiform Loewenfeld,3.3.8,m,611.4800000000396,34,word
113,1,C,4,Lentiform Loewenfeld,3.3.8,c,689.5950000000885,34,nonword
114,1,M,2,Lentiform Loewenfeld,3.3.8,m,764.909500000067,34,word
115,1,M,2,Lentiform Loewenfeld,3.3.8,m,739.9746999999625,34,word
116,1,M,2,Lentiform Loewenfeld,3.3.8,m,950.5742000000319,34,word
117,1,C,7,Lentiform Loewenfeld,3.3.8,c,745.2652000000235,34,nonword
118,1,C,4,Lentiform Loewenfeld,3.3.8,c,741.3641999998945,34,nonword
119,1,M,1,Lentiform Loewenfeld,3.3.8,m,1135.7978000000003,34,word
120,0,M,6,Lentiform Loewenfeld,3.3.8,c,773.8343999999342,34,word
121,1,M,4,Lentiform Loewenfeld,3.3.8,m,607.4082000000635,34,word
122,1,C,5,Lentiform Loewenfeld,3.3.8,c,620.6880000000237,34,nonword
123,0,C,7,Lentiform Loewenfeld,3.3.8,m,547.935999999987,34,nonword
124,0,M,1,Lentiform Loewenfeld,3.3.8,c,1040.4249999999302,34,word
125,1,M,4,Lentiform Loewenfeld,3.3.8,m,587.9653000000981,34,word
126,1,C,3,Lentiform Loewenfeld,3.3.8,c,785.322700000077,34,nonword
127,1,M,4,Lentiform Loewenfeld,3.3.8,m,789.4263999999384,34,word
128,1,C,5,Lentiform Loewenfeld,3.3.8,c,715.3965000000317,34,nonword
129,0,M,5,Lentiform Loewenfeld,3.3.8,c,586.4206999999587,34,word
130,0,C,3,Lentiform Loewenfeld,3.3.8,m,861.1935999999987,34,nonword
131,1,M,1,Lentiform Loewenfeld,3.3.8,m,716.258600000001,34,word
132,1,C,1,Lentiform Loewenfeld,3.3.8,c,652.4736000000848,34,nonword
133,1,C,2,Lentiform Loewenfeld,3.3.8,c,698.0984000000753,34,nonword
134,0,C,6,Lentiform Loewenfeld,3.3.8,m,684.9976000000024,34,nonword
135,1,M,2,Lentiform Loewenfeld,3.3.8,m,698.7288000000408,34,word
136,1,M,2,Lentiform Loewenfeld,3.3.8,m,670.0072999999975,34,word
137,1,M,4,Lentiform Loewenfeld,3.3.8,m,568.9845000000787,34,word
138,1,C,1,Lentiform Loewenfeld,3.3.8,c,595.2172999999602,34,nonword
139,1,M,3,Lentiform Loewenfeld,3.3.8,m,721.8117999999668,34,word
140,1,M,1,Lentiform Loewenfeld,3.3.8,m,675.7473999999929,34,word
141,1,C,5,Lentiform Loewenfeld,3.3.8,c,572.6572999999626,34,nonword
142,1,M,7,Lentiform Loewenfeld,3.3.8,m,1262.593600000022,34,word
143,1,C,6,Lentiform Loewenfeld,3.3.8,c,674.0897999999579,34,nonword
144,1,M,6,Lentiform Loewenfeld,3.3.8,m,588.0321999999578,34,word
145,1,C,1,Lentiform Loewenfeld,3.3.8,c,687.9653000000399,34,nonword
146,1,M,6,Lentiform Loewenfeld,3.3.8,m,807.7054000000353,34,word
147,0,M,7,Lentiform Loewenfeld,3.3.8,c,752.1712999999872,34,word
148,1,C,6,Lentiform Loewenfeld,3.3.8,c,603.8371999999508,34,nonword
149,1,C,7,Lentiform Loewenfeld,3.3.8,c,591.9592999999877,34,nonword
150,1,C,1,Lentiform Loewenfeld,3.3.8,c,615.5383000000147,34,nonword
151,1,C,7,Lentiform Loewenfeld,3.3.8,c,782.8259000000544,34,nonword
152,1,M,2,Lentiform Loewenfeld,3.3.8,m,573.57150000002,34,word
153,1,M,2,Lentiform Loewenfeld,3.3.8,m,805.1562999999151,34,word
154,1,C,5,Lentiform Loewenfeld,3.3.8,c,684.445400000026,34,nonword
155,1,C,3,Lentiform Loewenfeld,3.3.8,c,1031.4717999999993,34,nonword
156,1,C,3,Lentiform Loewenfeld,3.3.8,c,802.9960999999894,34,nonword
157,1,C,3,Lentiform Loewenfeld,3.3.8,c,944.4500000000116,34,nonword
158,1,M,7,Lentiform Loewenfeld,3.3.8,m,656.2192000000505,34,word
159,1,C,7,Lentiform Loewenfeld,3.3.8,c,740.2298999999184,34,nonword
160,1,M,7,Lentiform Loewenfeld,3.3.8,m,692.8255000000354,34,word
161,0,M,3,Lentiform Loewenfeld,3.3.8,c,1265.2495000000345,34,word
162,1,M,4,Lentiform Loewenfeld,3.3.8,m,1099.48609999998,34,word
163,1,M,3,Lentiform Loewenfeld,3.3.8,m,738.4819000000716,34,word
164,1,C,3,Lentiform Loewenfeld,3.3.8,c,694.0579999999609,34,nonword
165,1,C,4,Lentiform Loewenfeld,3.3.8,c,1097.320000000007,34,nonword
166,0,M,1,Lentiform Loewenfeld,3.3.8,c,2143.0219000000507,34,word
167,1,C,6,Lentiform Loewenfeld,3.3.8,c,789.4328000000678,34,nonword
168,1,C,2,Lentiform Loewenfeld,3.3.8,c,870.2869000000646,34,nonword
169,0,M,7,Lentiform Loewenfeld,3.3.8,c,1052.0648999998812,34,word
170,1,C,3,Lentiform Loewenfeld,3.3.8,c,1365.7413999999408,34,nonword
171,1,C,2,Lentiform Loewenfeld,3.3.8,c,686.2985000000335,34,nonword
172,1,M,2,Lentiform Loewenfeld,3.3.8,m,742.7065000000875,34,word
173,1,M,7,Lentiform Loewenfeld,3.3.8,m,797.0956000000006,34,word
174,1,C,6,Lentiform Loewenfeld,3.3.8,c,761.5248000000138,34,nonword
175,1,C,7,Lentiform Loewenfeld,3.3.8,c,889.6289999999572,34,nonword
176,1,C,7,Lentiform Loewenfeld,3.3.8,c,1052.0153000000864,34,nonword
177,1,M,5,Lentiform Loewenfeld,3.3.8,m,731.8685000000987,34,word
178,1,C,5,Lentiform Loewenfeld,3.3.8,c,789.6220000000903,34,nonword
179,1,M,5,Lentiform Loewenfeld,3.3.8,m,849.6940000000177,34,word
180,1,M,3,Lentiform Loewenfeld,3.3.8,m,672.7334000000264,34,word
181,1,M,6,Lentiform Loewenfeld,3.3.8,m,621.298700000043,34,word
182,0,M,3,Lentiform Loewenfeld,3.3.8,c,1065.093899999978,34,word
183,1,C,6,Lentiform Loewenfeld,3.3.8,c,955.6338000000687,34,nonword
184,1,C,4,Lentiform Loewenfeld,3.3.8,c,573.3407000000589,34,nonword
185,1,M,3,Lentiform Loewenfeld,3.3.8,m,637.9462999999523,34,word
186,1,M,6,Lentiform Loewenfeld,3.3.8,m,574.0551999999443,34,word
187,1,M,2,Lentiform Loewenfeld,3.3.8,m,604.4753999999957,34,word
188,1,M,1,Lentiform Loewenfeld,3.3.8,m,613.9060000000754,34,word
189,1,C,4,Lentiform Loewenfeld,3.3.8,c,701.8591000000015,34,nonword
190,0,C,1,Lentiform Loewenfeld,3.3.8,m,550.2665999999736,34,nonword
191,1,M,4,Lentiform Loewenfeld,3.3.8,m,705.6972999999998,34,word
192,1,M,7,Lentiform Loewenfeld,3.3.8,m,882.9699999999721,34,word
193,1,C,5,Lentiform Loewenfeld,3.3.8,c,880.2300999999279,34,nonword
194,1,C,5,Lentiform Loewenfeld,3.3.8,c,1670.1182999999728,34,nonword
195,0,M,7,Lentiform Loewenfeld,3.3.8,c,1317.4107000000076,34,word
196,1,M,7,Lentiform Loewenfeld,3.3.8,m,743.9422000000486,34,word
197,1,C,2,Lentiform Loewenfeld,3.3.8,c,729.8830999998609,34,nonword
198,1,C,7,Lentiform Loewenfeld,3.3.8,c,1175.2648999998346,34,nonword
199,1,C,7,Lentiform Loewenfeld,3.3.8,c,998.1488999999128,34,nonword
200,1,M,3,Lentiform Loewenfeld,3.3.8,m,638.9631000000518,34,word
201,1,C,2,Lentiform Loewenfeld,3.3.8,c,584.7508999999845,34,nonword
202,1,C,3,Lentiform Loewenfeld,3.3.8,c,1097.030299999984,34,nonword
203,1,C,1,Lentiform Loewenfeld,3.3.8,c,707.5439000000479,34,nonword
204,1,C,5,Lentiform Loewenfeld,3.3.8,c,1180.6315000000177,34,nonword
205,1,M,3,Lentiform Loewenfeld,3.3.8,m,828.6842999999644,34,word
206,1,C,1,Lentiform Loewenfeld,3.3.8,c,1277.0913999999177,34,nonword
207,1,M,6,Lentiform Loewenfeld,3.3.8,m,678.5304000000469,34,word
208,1,C,2,Lentiform Loewenfeld,3.3.8,c,796.9697999999626,34,nonword
209,1,M,6,Lentiform Loewenfeld,3.3.8,m,883.5417000000598,34,word
210,0,C,4,Lentiform Loewenfeld,3.3.8,,2150.0358000000706,34,nonword
211,0,M,3,Lentiform Loewenfeld,3.3.8,c,1626.0702000000747,34,word
212,1,C,6,Lentiform Loewenfeld,3.3.8,c,794.1888999998337,34,nonword
213,0,M,1,Lentiform Loewenfeld,3.3.8,c,1201.1195999999763,34,word
214,0,M,7,Lentiform Loewenfeld,3.3.8,c,881.3003999999491,34,word
215,1,M,1,Lentiform Loewenfeld,3.3.8,m,976.7442999999039,34,word
216,0,M,5,Lentiform Loewenfeld,3.3.8,c,1271.9675999999745,34,word
217,1,C,6,Lentiform Loewenfeld,3.3.8,c,935.6276999999536,34,nonword
218,1,C,2,Lentiform Loewenfeld,3.3.8,c,1719.3680999999633,34,nonword
219,1,C,2,Lentiform Loewenfeld,3.3.8,c,641.1846000000369,34,nonword
220,0,M,7,Lentiform Loewenfeld,3.3.8,c,522.7798000000184,34,word
221,1,C,3,Lentiform Loewenfeld,3.3.8,c,877.20550000004,34,nonword
222,1,M,4,Lentiform Loewenfeld,3.3.8,m,396.1036000000313,34,word
223,1,C,3,Lentiform Loewenfeld,3.3.8,c,517.3908999999985,34,nonword
224,1,C,4,Lentiform Loewenfeld,3.3.8,c,552.6661000000313,34,nonword
225,1,C,7,Lentiform Loewenfeld,3.3.8,c,545.2887999999803,34,nonword
226,1,M,5,Lentiform Loewenfeld,3.3.8,m,528.5361999999732,34,word
227,0,M,7,Lentiform Loewenfeld,3.3.8,c,663.6698000000324,34,word
228,1,C,5,Lentiform Loewenfeld,3.3.8,c,621.8849000000628,34,nonword
229,1,M,4,Lentiform Loewenfeld,3.3.8,m,491.6605999999447,34,word
230,1,M,4,Lentiform Loewenfeld,3.3.8,m,732.0986000000266,34,word
231,1,M,2,Lentiform Loewenfeld,3.3.8,m,1579.337899999926,34,word
232,1,M,5,Lentiform Loewenfeld,3.3.8,m,508.673800000106,34,word
233,1,C,1,Lentiform Loewenfeld,3.3.8,c,684.487800000119,34,nonword
234,1,C,2,Lentiform Loewenfeld,3.3.8,c,1208.3636999999871,34,nonword
235,1,M,4,Lentiform Loewenfeld,3.3.8,m,1032.3882999999914,34,word
236,1,C,1,Lentiform Loewenfeld,3.3.8,c,838.0968000000576,34,nonword
237,1,M,4,Lentiform Loewenfeld,3.3.8,m,889.1480999998748,34,word
238,1,C,7,Lentiform Loewenfeld,3.3.8,c,922.8967999998713,34,nonword
239,1,C,4,Lentiform Loewenfeld,3.3.8,c,722.6486000000732,34,nonword
240,1,C,6,Lentiform Loewenfeld,3.3.8,c,729.0877000000328,34,nonword
241,1,C,2,Lentiform Loewenfeld,3.3.8,c,670.7737000001362,34,nonword
242,1,M,2,Lentiform Loewenfeld,3.3.8,m,686.7062999999616,34,word
243,1,C,6,Lentiform Loewenfeld,3.3.8,c,744.4965000000084,34,nonword
244,1,C,6,Lentiform Loewenfeld,3.3.8,c,745.8855000000913,34,nonword
245,1,C,1,Lentiform Loewenfeld,3.3.8,c,637.5816999999806,34,nonword
246,1,C,4,Lentiform Loewenfeld,3.3.8,c,571.5097999998834,34,nonword
247,1,M,1,Lentiform Loewenfeld,3.3.8,m,563.7934999999125,34,word
248,1,M,1,Lentiform Loewenfeld,3.3.8,m,767.2108000000007,34,word
249,1,M,3,Lentiform Loewenfeld,3.3.8,m,615.1219999998575,34,word
250,1,C,4,Lentiform Loewenfeld,3.3.8,c,729.7177999998676,34,nonword
251,1,C,3,Lentiform Loewenfeld,3.3.8,c,657.4614000000292,34,nonword
252,1,C,6,Lentiform Loewenfeld,3.3.8,c,859.9348999999929,34,nonword
253,1,C,3,Lentiform Loewenfeld,3.3.8,c,1113.8669000000227,34,nonword
254,1,M,3,Lentiform Loewenfeld,3.3.8,m,771.6711999999825,34,word
255,1,C,2,Lentiform Loewenfeld,3.3.8,c,876.7441000000108,34,nonword
256,1,M,4,Lentiform Loewenfeld,3.3.8,m,828.2888999999268,34,word
257,1,M,2,Lentiform Loewenfeld,3.3.8,m,560.1767000000691,34,word
258,0,M,1,Lentiform Loewenfeld,3.3.8,c,507.8013000000501,34,word
259,1,M,2,Lentiform Loewenfeld,3.3.8,m,558.764199999976,34,word
260,1,C,4,Lentiform Loewenfeld,3.3.8,c,782.6565999999875,34,nonword
261,1,M,6,Lentiform Loewenfeld,3.3.8,m,532.9265000000596,34,word
262,0,C,4,Lentiform Loewenfeld,3.3.8,m,1230.3589000001084,34,nonword
263,1,M,7,Lentiform Loewenfeld,3.3.8,m,579.3797999999952,34,word
264,1,M,6,Lentiform Loewenfeld,3.3.8,m,549.4883000000846,34,word
265,1,M,6,Lentiform Loewenfeld,3.3.8,m,373.90030000009574,34,word
266,1,C,6,Lentiform Loewenfeld,3.3.8,c,546.6901999999536,34,nonword
267,1,C,2,Lentiform Loewenfeld,3.3.8,c,921.9546000000555,34,nonword
268,0,C,2,Lentiform Loewenfeld,3.3.8,m,896.6651999999303,34,nonword
269,1,M,6,Lentiform Loewenfeld,3.3.8,m,510.905000000028,34,word
270,1,M,1,Lentiform Loewenfeld,3.3.8,m,1150.0110000001732,34,word
271,1,C,7,Lentiform Loewenfeld,3.3.8,c,900.0865999999223,34,nonword
272,1,M,3,Lentiform Loewenfeld,3.3.8,m,738.0909000000684,34,word
273,1,M,1,Lentiform Loewenfeld,3.3.8,m,585.0653000000166,34,word
274,1,C,4,Lentiform Loewenfeld,3.3.8,c,772.8238000000129,34,nonword
275,0,M,5,Lentiform Loewenfeld,3.3.8,c,1784.234999999986,34,word
276,1,C,7,Lentiform Loewenfeld,3.3.8,c,1119.3645000000251,34,nonword
277,1,C,4,Lentiform Loewenfeld,3.3.8,c,881.3983000000007,34,nonword
278,1,M,4,Lentiform Loewenfeld,3.3.8,m,1341.3349000000162,34,word
279,1,C,5,Lentiform Loewenfeld,3.3.8,c,1208.836999999941,34,nonword
280,1,C,6,Lentiform Loewenfeld,3.3.8,c,779.844800000079,34,nonword
281,1,M,6,Lentiform Loewenfeld,3.3.8,m,658.3775000000605,34,word
282,1,C,5,Lentiform Loewenfeld,3.3.8,c,765.6668000000063,34,nonword
283,1,C,2,Lentiform Loewenfeld,3.3.8,c,812.5557000000263,34,nonword
284,1,M,3,Lentiform Loewenfeld,3.3.8,m,712.418699999922,34,word
285,1,C,4,Lentiform Loewenfeld,3.3.8,c,616.5328000000445,34,nonword
286,1,M,5,Lentiform Loewenfeld,3.3.8,m,515.9980999998515,34,word
287,1,M,4,Lentiform Loewenfeld,3.3.8,m,702.7246999999043,34,word
288,1,C,4,Lentiform Loewenfeld,3.3.8,c,835.5129000000888,34,nonword
289,1,M,1,Lentiform Loewenfeld,3.3.8,m,778.9011000000173,34,word
290,1,M,6,Lentiform Loewenfeld,3.3.8,m,636.1657000000123,34,word
291,1,C,1,Lentiform Loewenfeld,3.3.8,c,629.2704999999842,34,nonword
292,1,M,3,Lentiform Loewenfeld,3.3.8,m,659.6575999999186,34,word
293,1,C,6,Lentiform Loewenfeld,3.3.8,c,533.1032000000123,34,nonword
294,1,C,6,Lentiform Loewenfeld,3.3.8,c,797.8692000000738,34,nonword
295,1,M,6,Lentiform Loewenfeld,3.3.8,m,571.0892000000458,34,word
296,1,M,6,Lentiform Loewenfeld,3.3.8,m,1413.19869999995,34,word
297,1,C,5,Lentiform Loewenfeld,3.3.8,c,713.8913000000175,34,nonword
298,1,C,5,Lentiform Loewenfeld,3.3.8,c,939.4602000000887,34,nonword
299,1,M,4,Lentiform Loewenfeld,3.3.8,m,747.1792999998434,34,word
300,1,M,4,Lentiform Loewenfeld,3.3.8,m,700.7533999999287,34,word
301,1,C,2,Lentiform Loewenfeld,3.3.8,c,730.1394999998156,34,nonword
302,1,C,1,Lentiform Loewenfeld,3.3.8,c,1236.059699999867,34,nonword
303,1,C,4,Lentiform Loewenfeld,3.3.8,c,806.9246999999741,34,nonword
304,1,C,2,Lentiform Loewenfeld,3.3.8,c,1216.8436999999683,34,nonword
305,1,M,6,Lentiform Loewenfeld,3.3.8,m,899.0047999999952,34,word
306,1,M,7,Lentiform Loewenfeld,3.3.8,m,665.0546000000322,34,word
307,1,C,1,Lentiform Loewenfeld,3.3.8,c,757.3370000001742,34,nonword
308,1,C,5,Lentiform Loewenfeld,3.3.8,c,851.2441999999573,34,nonword
309,1,M,4,Lentiform Loewenfeld,3.3.8,m,830.4943999998504,34,word
310,1,C,1,Lentiform Loewenfeld,3.3.8,c,670.893600000185,34,nonword
311,1,C,2,Lentiform Loewenfeld,3.3.8,c,663.9518000000389,34,nonword
312,1,M,7,Lentiform Loewenfeld,3.3.8,m,452.2560999999987,34,word
313,1,C,6,Lentiform Loewenfeld,3.3.8,c,769.1624999999767,34,nonword
314,0,M,3,Lentiform Loewenfeld,3.3.8,c,985.4408999998122,34,word
315,0,M,5,Lentiform Loewenfeld,3.3.8,c,1706.472400000086,34,word
316,1,C,3,Lentiform Loewenfeld,3.3.8,c,823.8064999999478,34,nonword
317,1,M,3,Lentiform Loewenfeld,3.3.8,m,826.5801999999676,34,word
318,1,M,4,Lentiform Loewenfeld,3.3.8,m,521.9597000000067,34,word
319,1,M,2,Lentiform Loewenfeld,3.3.8,m,474.92989999987185,34,word
320,1,C,5,Lentiform Loewenfeld,3.3.8,c,652.3850000000093,34,nonword
321,1,M,1,Lentiform Loewenfeld,3.3.8,m,536.7763000000268,34,word
322,1,C,6,Lentiform Loewenfeld,3.3.8,c,649.0708999999333,34,nonword
323,1,C,5,Lentiform Loewenfeld,3.3.8,c,767.3501000000397,34,nonword
324,1,M,7,Lentiform Loewenfeld,3.3.8,m,469.7397999999812,34,word
325,1,C,7,Lentiform Loewenfeld,3.3.8,c,537.5307000001194,34,nonword
326,1,M,4,Lentiform Loewenfeld,3.3.8,m,622.2891000000527,34,word
327,1,C,5,Lentiform Loewenfeld,3.3.8,c,669.9222000001464,34,nonword
328,1,C,4,Lentiform Loewenfeld,3.3.8,c,911.1554000000469,34,nonword
329,1,C,1,Lentiform Loewenfeld,3.3.8,c,712.6798000000417,34,nonword
330,1,M,6,Lentiform Loewenfeld,3.3.8,m,746.628100000089,34,word
331,1,M,3,Lentiform Loewenfeld,3.3.8,m,651.5545000002021,34,word
332,1,M,1,Lentiform Loewenfeld,3.3.8,m,591.6307999999262,34,word
333,1,C,4,Lentiform Loewenfeld,3.3.8,c,1232.8608000002569,34,nonword
334,1,M,2,Lentiform Loewenfeld,3.3.8,m,530.909500000067,34,word
335,1,M,1,Lentiform Loewenfeld,3.3.8,m,729.3624999999302,34,word
336,1,M,2,Lentiform Loewenfeld,3.3.8,m,500.57609999983106,34,word
337,1,M,3,Lentiform Loewenfeld,3.3.8,m,506.5578000000678,34,word
338,1,C,2,Lentiform Loewenfeld,3.3.8,c,1313.830700000166,34,nonword
339,1,C,7,Lentiform Loewenfeld,3.3.8,c,542.8316999999806,34,nonword
340,1,M,3,Lentiform Loewenfeld,3.3.8,m,697.0808999999426,34,word
341,1,C,3,Lentiform Loewenfeld,3.3.8,c,683.3445999999531,34,nonword
342,0,C,4,Lentiform Loewenfeld,3.3.8,m,546.7766000000993,34,nonword
343,1,M,6,Lentiform Loewenfeld,3.3.8,m,609.0690000000177,34,word
344,1,M,5,Lentiform Loewenfeld,3.3.8,m,667.3098000000464,34,word
345,1,C,7,Lentiform Loewenfeld,3.3.8,c,544.8964000000851,34,nonword
346,1,M,5,Lentiform Loewenfeld,3.3.8,m,838.1639999998733,34,word
347,1,C,3,Lentiform Loewenfeld,3.3.8,c,708.8863000001293,34,nonword
348,0,M,3,Lentiform Loewenfeld,3.3.8,c,885.8169999999227,34,word
349,1,M,4,Lentiform Loewenfeld,3.3.8,m,979.3877999999095,34,word
350,1,C,6,Lentiform Loewenfeld,3.3.8,c,621.5969000001205,34,nonword
351,1,C,7,Lentiform Loewenfeld,3.3.8,c,760.0134999998845,34,nonword
352,1,C,3,Lentiform Loewenfeld,3.3.8,c,653.0681000001496,34,nonword
353,1,M,2,Lentiform Loewenfeld,3.3.8,m,615.3252999999095,34,word
354,1,M,7,Lentiform Loewenfeld,3.3.8,m,713.4462000000058,34,word
355,1,M,5,Lentiform Loewenfeld,3.3.8,m,888.0037999999477,34,word
356,1,C,6,Lentiform Loewenfeld,3.3.8,c,577.3813000000082,34,nonword
357,1,C,1,Lentiform Loewenfeld,3.3.8,c,577.3551000001607,34,nonword
358,1,M,3,Lentiform Loewenfeld,3.3.8,m,618.6328000000212,34,word
359,1,M,1,Lentiform Loewenfeld,3.3.8,m,618.248900000006,34,word
360,1,C,6,Lentiform Loewenfeld,3.3.8,c,597.1853000000119,34,nonword
361,1,C,3,Lentiform Loewenfeld,3.3.8,c,454.5610999999335,34,nonword
362,1,C,5,Lentiform Loewenfeld,3.3.8,c,575.1852000000654,34,nonword
363,1,M,2,Lentiform Loewenfeld,3.3.8,m,658.4593999999342,34,word
364,1,M,1,Lentiform Loewenfeld,3.3.8,m,778.0483000001404,34,word
365,0,C,4,Lentiform Loewenfeld,3.3.8,m,530.9636000001337,34,nonword
366,1,C,3,Lentiform Loewenfeld,3.3.8,c,536.9153999999398,34,nonword
367,1,M,4,Lentiform Loewenfeld,3.3.8,m,558.857599999872,34,word
368,1,C,3,Lentiform Loewenfeld,3.3.8,c,895.9377000000095,34,nonword
369,1,M,7,Lentiform Loewenfeld,3.3.8,m,992.9977000000654,34,word
370,1,M,5,Lentiform Loewenfeld,3.3.8,m,609.5601000001188,34,word
371,1,M,3,Lentiform Loewenfeld,3.3.8,m,658.8367999999318,34,word
372,1,C,6,Lentiform Loewenfeld,3.3.8,c,605.424100000062,34,nonword
373,1,C,3,Lentiform Loewenfeld,3.3.8,c,815.8614000000525,34,nonword
374,1,C,5,Lentiform Loewenfeld,3.3.8,c,906.5534999998054,34,nonword
375,1,M,7,Lentiform Loewenfeld,3.3.8,m,579.0854000000982,34,word
376,1,C,1,Lentiform Loewenfeld,3.3.8,c,579.5597000000998,34,nonword
377,1,M,3,Lentiform Loewenfeld,3.3.8,m,567.361200000043,34,word
378,1,M,7,Lentiform Loewenfeld,3.3.8,m,647.797600000049,34,word
379,1,C,1,Lentiform Loewenfeld,3.3.8,c,609.2414000000572,34,nonword
380,1,M,5,Lentiform Loewenfeld,3.3.8,m,627.9877999998862,34,word
381,1,C,7,Lentiform Loewenfeld,3.3.8,c,515.8018999999622,34,nonword
382,0,M,3,Lentiform Loewenfeld,3.3.8,c,637.1721999997972,34,word
383,1,M,4,Lentiform Loewenfeld,3.3.8,m,537.7537000001175,34,word
384,1,M,1,Lentiform Loewenfeld,3.3.8,m,560.3688999998849,34,word
385,1,M,4,Lentiform Loewenfeld,3.3.8,m,560.2895000000717,34,word
386,1,C,3,Lentiform Loewenfeld,3.3.8,c,624.8871999999974,34,nonword
387,1,M,5,Lentiform Loewenfeld,3.3.8,m,529.6514000000898,34,word
388,1,C,2,Lentiform Loewenfeld,3.3.8,c,809.062099999981,34,nonword
389,1,M,6,Lentiform Loewenfeld,3.3.8,m,674.7406000001356,34,word
390,0,M,4,Lentiform Loewenfeld,3.3.8,c,823.2355999998981,34,word
391,1,C,3,Lentiform Loewenfeld,3.3.8,c,666.0018999999156,34,nonword
392,0,C,4,Lentiform Loewenfeld,3.3.8,m,807.7420000000857,34,nonword
393,1,C,1,Lentiform Loewenfeld,3.3.8,c,845.4544999999925,34,nonword
394,1,C,1,Lentiform Loewenfeld,3.3.8,c,620.85380000039,34,nonword
395,1,M,6,Lentiform Loewenfeld,3.3.8,m,1285.8186999997124,34,word
396,1,M,5,Lentiform Loewenfeld,3.3.8,m,607.1700000001583,34,word
397,1,M,5,Lentiform Loewenfeld,3.3.8,m,473.42359999986365,34,word
398,1,C,7,Lentiform Loewenfeld,3.3.8,c,505.5522999998648,34,nonword
399,1,M,7,Lentiform Loewenfeld,3.3.8,m,752.1488999999128,34,word
400,1,M,2,Lentiform Loewenfeld,3.3.8,m,565.0504000000656,34,word
401,1,C,4,Lentiform Loewenfeld,3.3.8,c,698.3279000001494,34,nonword
402,1,C,2,Lentiform Loewenfeld,3.3.8,c,973.7654999997467,34,nonword
403,1,C,2,Lentiform Loewenfeld,3.3.8,c,482.2017000000924,34,nonword
404,1,C,1,Lentiform Loewenfeld,3.3.8,c,462.2821000001859,34,nonword
405,1,M,2,Lentiform Loewenfeld,3.3.8,m,578.2247999997344,34,word
406,1,C,5,Lentiform Loewenfeld,3.3.8,c,613.4914999997709,34,nonword
407,0,C,7,Lentiform Loewenfeld,3.3.8,m,993.090299999807,34,nonword
408,1,M,4,Lentiform Loewenfeld,3.3.8,m,549.8040999998339,34,word
409,1,C,3,Lentiform Loewenfeld,3.3.8,c,610.2313000001013,34,nonword
410,1,C,5,Lentiform Loewenfeld,3.3.8,c,703.1676000000443,34,nonword
411,1,M,7,Lentiform Loewenfeld,3.3.8,m,813.6003000000492,34,word
412,1,C,7,Lentiform Loewenfeld,3.3.8,c,660.8351999998558,34,nonword
413,1,M,1,Lentiform Loewenfeld,3.3.8,m,1237.5497999996878,34,word
414,1,M,5,Lentiform Loewenfeld,3.3.8,m,871.5988000000361,34,word
415,1,C,5,Lentiform Loewenfeld,3.3.8,c,583.3238999999594,34,nonword
416,0,M,7,Lentiform Loewenfeld,3.3.8,c,877.4239000000525,34,word
417,1,C,4,Lentiform Loewenfeld,3.3.8,c,686.3170999998692,34,nonword
418,1,M,7,Lentiform Loewenfeld,3.3.8,m,607.561400000006,34,word
419,1,M,2,Lentiform Loewenfeld,3.3.8,m,627.3811000001151,34,word
