Unnamed: 0,correct_keyboard_response_1,correct_response,flanker_condition,opensesame_codename,opensesame_version,response_keyboard_response_1,response_time_keyboard_response_1,subject_nr,target_type
0,1,M,3,Lentiform Loewenfeld,3.3.8,m,465.82730000000447,17,word
1,1,C,6,Lentiform Loewenfeld,3.3.8,c,648.9563999999955,17,nonword
2,0,M,4,Lentiform Loewenfeld,3.3.8,c,507.4800000000105,17,word
3,1,C,3,Lentiform Loewenfeld,3.3.8,c,778.6257000000624,17,nonword
4,0,C,6,Lentiform Loewenfeld,3.3.8,m,542.2143999999971,17,nonword
5,1,M,2,Lentiform Loewenfeld,3.3.8,m,584.4889999999723,17,word
6,1,M,4,Lentiform Loewenfeld,3.3.8,m,727.7446999999811,17,word
7,1,M,4,Lentiform Loewenfeld,3.3.8,m,498.97179999997024,17,word
8,1,M,1,Lentiform Loewenfeld,3.3.8,m,625.9372999999905,17,word
9,1,C,3,Lentiform Loewenfeld,3.3.8,c,521.3743999999715,17,nonword
10,1,M,6,Lentiform Loewenfeld,3.3.8,m,685.1630999999761,17,word
11,1,M,1,Lentiform Loewenfeld,3.3.8,m,851.5597999999882,17,word
12,1,M,2,Lentiform Loewenfeld,3.3.8,m,471.27859999999055,17,word
13,1,M,5,Lentiform Loewenfeld,3.3.8,m,497.11919999998645,17,word
14,0,C,2,Lentiform Loewenfeld,3.3.8,m,521.0333999999857,17,nonword
15,1,C,2,Lentiform Loewenfeld,3.3.8,c,683.6418000000122,17,nonword
16,0,C,5,Lentiform Loewenfeld,3.3.8,m,750.9097999999358,17,nonword
17,1,M,5,Lentiform Loewenfeld,3.3.8,m,542.8530000000028,17,word
18,1,C,4,Lentiform Loewenfeld,3.3.8,c,542.362300000008,17,nonword
19,1,C,5,Lentiform Loewenfeld,3.3.8,c,848.2084000000032,17,nonword
20,1,C,5,Lentiform Loewenfeld,3.3.8,c,553.299399999989,17,nonword
21,1,C,4,Lentiform Loewenfeld,3.3.8,c,536.9194000000134,17,nonword
22,1,M,5,Lentiform Loewenfeld,3.3.8,m,380.5701999999873,17,word
23,1,C,7,Lentiform Loewenfeld,3.3.8,c,498.1467999999877,17,nonword
24,0,M,4,Lentiform Loewenfeld,3.3.8,c,673.230099999957,17,word
25,1,C,3,Lentiform Loewenfeld,3.3.8,c,584.851500000048,17,nonword
26,1,C,4,Lentiform Loewenfeld,3.3.8,c,565.619000000006,17,nonword
27,1,C,1,Lentiform Loewenfeld,3.3.8,c,488.2364000000525,17,nonword
28,1,C,6,Lentiform Loewenfeld,3.3.8,c,506.6824000000488,17,nonword
29,1,M,4,Lentiform Loewenfeld,3.3.8,m,504.2672999999486,17,word
30,1,C,3,Lentiform Loewenfeld,3.3.8,c,471.09110000001965,17,nonword
31,1,C,1,Lentiform Loewenfeld,3.3.8,c,516.5278999999282,17,nonword
32,1,C,4,Lentiform Loewenfeld,3.3.8,c,587.1428999999189,17,nonword
33,1,C,1,Lentiform Loewenfeld,3.3.8,c,506.89659999992,17,nonword
34,1,M,3,Lentiform Loewenfeld,3.3.8,m,628.8782000000938,17,word
35,1,M,5,Lentiform Loewenfeld,3.3.8,m,483.4679999999353,17,word
36,0,C,5,Lentiform Loewenfeld,3.3.8,m,362.20670000003884,17,nonword
37,0,C,5,Lentiform Loewenfeld,3.3.8,m,524.4893000000156,17,nonword
38,1,C,2,Lentiform Loewenfeld,3.3.8,c,527.8233999998774,17,nonword
39,1,M,6,Lentiform Loewenfeld,3.3.8,m,523.365599999961,17,word
40,1,C,1,Lentiform Loewenfeld,3.3.8,c,476.6221999999834,17,nonword
41,1,C,1,Lentiform Loewenfeld,3.3.8,c,691.774000000034,17,nonword
42,0,M,7,Lentiform Loewenfeld,3.3.8,c,496.3173999999999,17,word
43,1,C,3,Lentiform Loewenfeld,3.3.8,c,633.7554000000819,17,nonword
44,1,M,2,Lentiform Loewenfeld,3.3.8,m,667.5556000000797,17,word
45,1,M,7,Lentiform Loewenfeld,3.3.8,m,482.6062999999849,17,word
46,1,M,5,Lentiform Loewenfeld,3.3.8,m,462.0659999999334,17,word
47,1,C,7,Lentiform Loewenfeld,3.3.8,c,482.4950999999419,17,nonword
48,1,M,5,Lentiform Loewenfeld,3.3.8,m,572.6128000000026,17,word
49,0,C,7,Lentiform Loewenfeld,3.3.8,m,476.54000000003725,17,nonword
50,1,M,7,Lentiform Loewenfeld,3.3.8,m,540.1355999999796,17,word
51,1,C,7,Lentiform Loewenfeld,3.3.8,c,496.23989999998594,17,nonword
52,1,C,4,Lentiform Loewenfeld,3.3.8,c,512.5221000000602,17,nonword
53,0,M,3,Lentiform Loewenfeld,3.3.8,c,498.81440000003204,17,word
54,1,M,1,Lentiform Loewenfeld,3.3.8,m,677.2476000000024,17,word
55,1,M,7,Lentiform Loewenfeld,3.3.8,m,470.4929000000702,17,word
56,1,M,6,Lentiform Loewenfeld,3.3.8,m,426.95900000003166,17,word
57,1,C,1,Lentiform Loewenfeld,3.3.8,c,511.5443000000087,17,nonword
58,1,C,5,Lentiform Loewenfeld,3.3.8,c,529.3349999999627,17,nonword
59,1,C,6,Lentiform Loewenfeld,3.3.8,c,531.2689000000246,17,nonword
60,1,M,1,Lentiform Loewenfeld,3.3.8,m,451.67270000005374,17,word
61,1,M,3,Lentiform Loewenfeld,3.3.8,m,401.8054000000702,17,word
62,1,M,5,Lentiform Loewenfeld,3.3.8,m,336.50230000005104,17,word
63,1,C,4,Lentiform Loewenfeld,3.3.8,c,366.9238999999943,17,nonword
64,1,C,6,Lentiform Loewenfeld,3.3.8,c,370.69189999991795,17,nonword
65,0,C,2,Lentiform Loewenfeld,3.3.8,m,407.5425000000396,17,nonword
66,1,C,3,Lentiform Loewenfeld,3.3.8,c,489.66539999999804,17,nonword
67,0,M,7,Lentiform Loewenfeld,3.3.8,c,448.78529999998864,17,word
68,0,C,4,Lentiform Loewenfeld,3.3.8,m,427.52879999991274,17,nonword
69,1,C,3,Lentiform Loewenfeld,3.3.8,c,656.64790000004,17,nonword
70,1,C,7,Lentiform Loewenfeld,3.3.8,c,422.9004000000423,17,nonword
71,1,C,5,Lentiform Loewenfeld,3.3.8,c,378.5261000000756,17,nonword
72,1,M,2,Lentiform Loewenfeld,3.3.8,m,508.9591000000364,17,word
73,1,M,4,Lentiform Loewenfeld,3.3.8,m,445.1048999999184,17,word
74,1,M,1,Lentiform Loewenfeld,3.3.8,m,450.76189999998314,17,word
75,1,M,5,Lentiform Loewenfeld,3.3.8,m,444.844700000016,17,word
76,0,C,7,Lentiform Loewenfeld,3.3.8,m,540.6138999999384,17,nonword
77,1,M,6,Lentiform Loewenfeld,3.3.8,m,616.0515000000596,17,word
78,0,C,1,Lentiform Loewenfeld,3.3.8,m,548.9792999999481,17,nonword
79,1,C,6,Lentiform Loewenfeld,3.3.8,c,763.0913000000874,17,nonword
80,1,M,6,Lentiform Loewenfeld,3.3.8,m,518.1641000000527,17,word
81,0,M,4,Lentiform Loewenfeld,3.3.8,c,526.2709000000032,17,word
82,1,M,7,Lentiform Loewenfeld,3.3.8,m,560.7140999999247,17,word
83,0,C,3,Lentiform Loewenfeld,3.3.8,m,465.69089999992866,17,nonword
84,1,M,3,Lentiform Loewenfeld,3.3.8,m,467.9579000000376,17,word
85,1,C,6,Lentiform Loewenfeld,3.3.8,c,483.39929999999003,17,nonword
86,1,M,1,Lentiform Loewenfeld,3.3.8,m,620.1588999999803,17,word
87,1,M,1,Lentiform Loewenfeld,3.3.8,m,475.1219999999739,17,word
88,1,M,7,Lentiform Loewenfeld,3.3.8,m,303.0368999999482,17,word
89,1,M,6,Lentiform Loewenfeld,3.3.8,m,516.0214000000269,17,word
90,1,C,2,Lentiform Loewenfeld,3.3.8,c,489.28249999991385,17,nonword
91,0,C,3,Lentiform Loewenfeld,3.3.8,m,493.22429999994347,17,nonword
92,1,C,7,Lentiform Loewenfeld,3.3.8,c,369.51209999993443,17,nonword
93,1,C,6,Lentiform Loewenfeld,3.3.8,c,380.8027000000584,17,nonword
94,0,M,4,Lentiform Loewenfeld,3.3.8,c,436.6104999999516,17,word
95,0,M,4,Lentiform Loewenfeld,3.3.8,c,620.3941999999806,17,word
96,1,C,5,Lentiform Loewenfeld,3.3.8,c,614.6313000000664,17,nonword
97,1,C,4,Lentiform Loewenfeld,3.3.8,c,379.53999999997905,17,nonword
98,1,C,2,Lentiform Loewenfeld,3.3.8,c,449.18189999990864,17,nonword
99,0,M,7,Lentiform Loewenfeld,3.3.8,c,544.6362000000081,17,word
100,1,C,6,Lentiform Loewenfeld,3.3.8,c,485.0953000000445,17,nonword
101,0,M,2,Lentiform Loewenfeld,3.3.8,c,339.545999999973,17,word
102,1,M,5,Lentiform Loewenfeld,3.3.8,m,535.812399999937,17,word
103,1,C,5,Lentiform Loewenfeld,3.3.8,c,557.2399000000441,17,nonword
104,1,M,5,Lentiform Loewenfeld,3.3.8,m,542.8575000001001,17,word
105,1,M,2,Lentiform Loewenfeld,3.3.8,m,518.273899999971,17,word
106,1,M,6,Lentiform Loewenfeld,3.3.8,m,328.0498000000953,17,word
107,0,C,4,Lentiform Loewenfeld,3.3.8,m,406.1640999999945,17,nonword
108,1,M,6,Lentiform Loewenfeld,3.3.8,m,492.7907000000123,17,word
109,1,C,4,Lentiform Loewenfeld,3.3.8,c,520.7485000000452,17,nonword
110,1,C,4,Lentiform Loewenfeld,3.3.8,c,638.158400000073,17,nonword
111,1,C,5,Lentiform Loewenfeld,3.3.8,c,456.9760000000824,17,nonword
112,1,C,1,Lentiform Loewenfeld,3.3.8,c,520.0580000000773,17,nonword
113,1,M,3,Lentiform Loewenfeld,3.3.8,m,530.0106999999261,17,word
114,0,M,7,Lentiform Loewenfeld,3.3.8,c,462.8052000000025,17,word
115,1,C,7,Lentiform Loewenfeld,3.3.8,c,508.8886999999522,17,nonword
116,1,C,3,Lentiform Loewenfeld,3.3.8,c,502.1804000000702,17,nonword
117,1,C,4,Lentiform Loewenfeld,3.3.8,c,558.7950999999885,17,nonword
118,1,C,4,Lentiform Loewenfeld,3.3.8,c,895.8350000000792,17,nonword
119,1,M,2,Lentiform Loewenfeld,3.3.8,m,509.32010000001173,17,word
120,1,M,6,Lentiform Loewenfeld,3.3.8,m,385.2398000000394,17,word
121,0,C,6,Lentiform Loewenfeld,3.3.8,m,345.18229999992764,17,nonword
122,1,C,4,Lentiform Loewenfeld,3.3.8,c,426.6289000000106,17,nonword
123,1,C,4,Lentiform Loewenfeld,3.3.8,c,248.91829999990296,17,nonword
124,0,M,4,Lentiform Loewenfeld,3.3.8,c,507.06849999993574,17,word
125,1,M,1,Lentiform Loewenfeld,3.3.8,m,431.6699999999837,17,word
126,0,C,5,Lentiform Loewenfeld,3.3.8,m,327.329400000046,17,nonword
127,1,M,7,Lentiform Loewenfeld,3.3.8,m,517.4263999999966,17,word
128,1,M,5,Lentiform Loewenfeld,3.3.8,m,428.5364999999292,17,word
129,1,M,4,Lentiform Loewenfeld,3.3.8,m,399.43210000003444,17,word
130,0,C,5,Lentiform Loewenfeld,3.3.8,m,309.27840000006836,17,nonword
131,1,M,3,Lentiform Loewenfeld,3.3.8,m,481.0788000000175,17,word
132,0,C,3,Lentiform Loewenfeld,3.3.8,m,392.8512000000337,17,nonword
133,1,C,7,Lentiform Loewenfeld,3.3.8,c,484.9902000001166,17,nonword
134,1,M,3,Lentiform Loewenfeld,3.3.8,m,485.9126999999862,17,word
135,0,M,1,Lentiform Loewenfeld,3.3.8,c,479.08399999997346,17,word
136,1,M,3,Lentiform Loewenfeld,3.3.8,m,524.3954999999842,17,word
137,1,C,2,Lentiform Loewenfeld,3.3.8,c,544.7997000000323,17,nonword
138,1,C,6,Lentiform Loewenfeld,3.3.8,c,362.4037000001408,17,nonword
139,1,M,3,Lentiform Loewenfeld,3.3.8,m,526.8996999999508,17,word
140,0,M,3,Lentiform Loewenfeld,3.3.8,c,502.1306999999797,17,word
141,1,C,1,Lentiform Loewenfeld,3.3.8,c,441.7550999999512,17,nonword
142,1,C,1,Lentiform Loewenfeld,3.3.8,c,416.8874000000651,17,nonword
143,0,C,1,Lentiform Loewenfeld,3.3.8,m,443.48870000004536,17,nonword
144,1,M,4,Lentiform Loewenfeld,3.3.8,m,561.76660000009,17,word
145,1,C,2,Lentiform Loewenfeld,3.3.8,c,697.3593999999575,17,nonword
146,1,C,2,Lentiform Loewenfeld,3.3.8,c,671.1377000000793,17,nonword
147,0,M,1,Lentiform Loewenfeld,3.3.8,c,459.67379999993136,17,word
148,1,M,3,Lentiform Loewenfeld,3.3.8,m,549.6541000000434,17,word
149,1,M,5,Lentiform Loewenfeld,3.3.8,m,475.4825000000419,17,word
150,1,M,7,Lentiform Loewenfeld,3.3.8,m,465.1906000000308,17,word
151,1,C,5,Lentiform Loewenfeld,3.3.8,c,449.34030000003986,17,nonword
152,1,C,6,Lentiform Loewenfeld,3.3.8,c,563.840899999952,17,nonword
153,1,M,4,Lentiform Loewenfeld,3.3.8,m,522.5494000000181,17,word
154,1,M,7,Lentiform Loewenfeld,3.3.8,m,580.510200000077,17,word
155,1,M,5,Lentiform Loewenfeld,3.3.8,m,503.7595000000438,17,word
156,1,C,6,Lentiform Loewenfeld,3.3.8,c,431.1879000000772,17,nonword
157,1,M,3,Lentiform Loewenfeld,3.3.8,m,469.6286999999429,17,word
158,1,C,7,Lentiform Loewenfeld,3.3.8,c,617.3397000000114,17,nonword
159,1,M,6,Lentiform Loewenfeld,3.3.8,m,560.0323000000208,17,word
160,1,C,6,Lentiform Loewenfeld,3.3.8,c,525.6200000000536,17,nonword
161,0,C,6,Lentiform Loewenfeld,3.3.8,m,320.7407999999705,17,nonword
162,1,C,1,Lentiform Loewenfeld,3.3.8,c,491.3726000000024,17,nonword
163,1,M,2,Lentiform Loewenfeld,3.3.8,m,520.9734000000171,17,word
164,1,M,2,Lentiform Loewenfeld,3.3.8,m,534.4394999999786,17,word
165,1,M,5,Lentiform Loewenfeld,3.3.8,m,358.69369999994524,17,word
166,1,C,2,Lentiform Loewenfeld,3.3.8,c,509.5493000000715,17,nonword
167,0,M,2,Lentiform Loewenfeld,3.3.8,c,531.3385000000708,17,word
168,1,C,6,Lentiform Loewenfeld,3.3.8,c,506.7419000000227,17,nonword
169,1,M,7,Lentiform Loewenfeld,3.3.8,m,602.3524999999208,17,word
170,0,C,5,Lentiform Loewenfeld,3.3.8,m,438.637199999881,17,nonword
171,1,M,1,Lentiform Loewenfeld,3.3.8,m,602.8804000000237,17,word
172,1,M,1,Lentiform Loewenfeld,3.3.8,m,497.6844000001438,17,word
173,1,M,1,Lentiform Loewenfeld,3.3.8,m,406.78570000000764,17,word
174,1,M,3,Lentiform Loewenfeld,3.3.8,m,438.9017999999924,17,word
175,1,C,2,Lentiform Loewenfeld,3.3.8,c,471.74050000007264,17,nonword
176,0,M,3,Lentiform Loewenfeld,3.3.8,c,678.8300000000745,17,word
177,1,C,1,Lentiform Loewenfeld,3.3.8,c,741.1209999999264,17,nonword
178,1,C,3,Lentiform Loewenfeld,3.3.8,c,717.6356999999844,17,nonword
179,1,C,4,Lentiform Loewenfeld,3.3.8,c,561.5953000000445,17,nonword
180,1,C,5,Lentiform Loewenfeld,3.3.8,c,940.5130999999819,17,nonword
181,1,M,3,Lentiform Loewenfeld,3.3.8,m,512.5570999999763,17,word
182,1,C,1,Lentiform Loewenfeld,3.3.8,c,620.6636000000872,17,nonword
183,1,M,1,Lentiform Loewenfeld,3.3.8,m,409.9414000000106,17,word
184,1,C,7,Lentiform Loewenfeld,3.3.8,c,512.3826000000117,17,nonword
185,0,M,1,Lentiform Loewenfeld,3.3.8,c,363.9817000000039,17,word
186,1,C,1,Lentiform Loewenfeld,3.3.8,c,418.4263000000501,17,nonword
187,1,C,7,Lentiform Loewenfeld,3.3.8,c,535.5571999999229,17,nonword
188,1,C,5,Lentiform Loewenfeld,3.3.8,c,551.1466000000946,17,nonword
189,1,M,4,Lentiform Loewenfeld,3.3.8,m,370.7583999999333,17,word
190,0,C,3,Lentiform Loewenfeld,3.3.8,m,551.7302999999374,17,nonword
191,1,C,4,Lentiform Loewenfeld,3.3.8,c,533.2027000000235,17,nonword
192,1,C,2,Lentiform Loewenfeld,3.3.8,c,476.2979999999516,17,nonword
193,1,M,4,Lentiform Loewenfeld,3.3.8,m,756.0891000000993,17,word
194,1,M,6,Lentiform Loewenfeld,3.3.8,m,476.32929999998305,17,word
195,1,C,2,Lentiform Loewenfeld,3.3.8,c,550.4637999999104,17,nonword
196,1,M,6,Lentiform Loewenfeld,3.3.8,m,414.70900000003166,17,word
197,1,M,2,Lentiform Loewenfeld,3.3.8,m,578.9928000000073,17,word
198,1,M,6,Lentiform Loewenfeld,3.3.8,m,409.9177999999374,17,word
199,1,C,3,Lentiform Loewenfeld,3.3.8,c,441.9127999999328,17,nonword
200,1,C,1,Lentiform Loewenfeld,3.3.8,c,529.0256999999983,17,nonword
201,1,C,7,Lentiform Loewenfeld,3.3.8,c,569.1141000000061,17,nonword
202,1,M,4,Lentiform Loewenfeld,3.3.8,m,374.7328999999445,17,word
203,1,C,5,Lentiform Loewenfeld,3.3.8,c,648.1872000001604,17,nonword
204,1,M,3,Lentiform Loewenfeld,3.3.8,m,366.4419999999227,17,word
205,1,C,3,Lentiform Loewenfeld,3.3.8,c,496.56529999990016,17,nonword
206,1,M,4,Lentiform Loewenfeld,3.3.8,m,570.001500000013,17,word
207,1,C,4,Lentiform Loewenfeld,3.3.8,c,498.7534999999916,17,nonword
208,0,C,5,Lentiform Loewenfeld,3.3.8,m,549.3538000001572,17,nonword
209,1,M,4,Lentiform Loewenfeld,3.3.8,m,485.30449999996927,17,word
210,1,C,3,Lentiform Loewenfeld,3.3.8,c,635.1583999998402,17,nonword
211,1,C,4,Lentiform Loewenfeld,3.3.8,c,485.4836999999825,17,nonword
212,1,M,5,Lentiform Loewenfeld,3.3.8,m,598.2384999999776,17,word
213,1,C,6,Lentiform Loewenfeld,3.3.8,c,502.5397000000812,17,nonword
214,1,M,2,Lentiform Loewenfeld,3.3.8,m,486.9645999999484,17,word
215,1,C,5,Lentiform Loewenfeld,3.3.8,c,524.235900000087,17,nonword
216,1,C,2,Lentiform Loewenfeld,3.3.8,c,449.36979999998584,17,nonword
217,1,C,2,Lentiform Loewenfeld,3.3.8,c,380.1341000000248,17,nonword
218,1,C,6,Lentiform Loewenfeld,3.3.8,c,483.7515999999596,17,nonword
219,1,M,4,Lentiform Loewenfeld,3.3.8,m,386.8717999999644,17,word
220,1,M,3,Lentiform Loewenfeld,3.3.8,m,562.8193000000902,17,word
221,1,C,3,Lentiform Loewenfeld,3.3.8,c,454.2460999999894,17,nonword
222,1,C,6,Lentiform Loewenfeld,3.3.8,c,464.1944000000367,17,nonword
223,1,M,7,Lentiform Loewenfeld,3.3.8,m,470.1502999999793,17,word
224,0,M,7,Lentiform Loewenfeld,3.3.8,c,516.2875000000931,17,word
225,1,C,7,Lentiform Loewenfeld,3.3.8,c,480.9242999999551,17,nonword
226,1,C,7,Lentiform Loewenfeld,3.3.8,c,588.8434000000125,17,nonword
227,0,C,1,Lentiform Loewenfeld,3.3.8,m,499.4722000000765,17,nonword
228,1,C,4,Lentiform Loewenfeld,3.3.8,c,605.4177999999374,17,nonword
229,0,M,5,Lentiform Loewenfeld,3.3.8,c,448.5570000000298,17,word
230,1,C,3,Lentiform Loewenfeld,3.3.8,c,525.8620999999112,17,nonword
231,1,M,2,Lentiform Loewenfeld,3.3.8,m,480.9490000001388,17,word
232,0,C,2,Lentiform Loewenfeld,3.3.8,m,395.6956999999238,17,nonword
233,1,C,2,Lentiform Loewenfeld,3.3.8,c,528.5285999999614,17,nonword
234,1,C,5,Lentiform Loewenfeld,3.3.8,c,421.1023000000277,17,nonword
235,1,M,1,Lentiform Loewenfeld,3.3.8,m,580.720500000054,17,word
236,1,C,1,Lentiform Loewenfeld,3.3.8,c,539.6511000000173,17,nonword
237,0,C,1,Lentiform Loewenfeld,3.3.8,m,464.1134000000311,17,nonword
238,1,M,6,Lentiform Loewenfeld,3.3.8,m,464.387199999881,17,word
239,1,M,2,Lentiform Loewenfeld,3.3.8,m,557.8399000000209,17,word
240,1,M,1,Lentiform Loewenfeld,3.3.8,m,414.952399999951,17,word
241,1,M,1,Lentiform Loewenfeld,3.3.8,m,517.9388999999501,17,word
242,1,C,2,Lentiform Loewenfeld,3.3.8,c,331.1635999999708,17,nonword
243,1,C,2,Lentiform Loewenfeld,3.3.8,c,425.79920000000857,17,nonword
244,0,M,5,Lentiform Loewenfeld,3.3.8,c,334.9175999999279,17,word
245,1,M,4,Lentiform Loewenfeld,3.3.8,m,661.0829000000376,17,word
246,1,M,3,Lentiform Loewenfeld,3.3.8,m,455.5466000000015,17,word
247,1,M,5,Lentiform Loewenfeld,3.3.8,m,365.97219999996014,17,word
248,0,C,7,Lentiform Loewenfeld,3.3.8,m,449.6038999998709,17,nonword
249,1,M,3,Lentiform Loewenfeld,3.3.8,m,457.6842999999644,17,word
250,0,C,2,Lentiform Loewenfeld,3.3.8,m,432.967399999965,17,nonword
251,1,C,1,Lentiform Loewenfeld,3.3.8,c,678.7497999999905,17,nonword
252,1,C,1,Lentiform Loewenfeld,3.3.8,c,475.0002000000095,17,nonword
253,1,M,6,Lentiform Loewenfeld,3.3.8,m,754.1543999999994,17,word
254,0,M,7,Lentiform Loewenfeld,3.3.8,c,632.9009000000078,17,word
255,1,M,5,Lentiform Loewenfeld,3.3.8,m,578.4773000000278,17,word
256,1,C,4,Lentiform Loewenfeld,3.3.8,c,554.5897000000114,17,nonword
257,1,M,2,Lentiform Loewenfeld,3.3.8,m,421.5114000000758,17,word
258,0,M,5,Lentiform Loewenfeld,3.3.8,c,607.6899999999441,17,word
259,1,C,2,Lentiform Loewenfeld,3.3.8,c,630.3030000000726,17,nonword
260,1,M,5,Lentiform Loewenfeld,3.3.8,m,480.389499999932,17,word
261,0,C,3,Lentiform Loewenfeld,3.3.8,m,378.6334999999963,17,nonword
262,1,M,7,Lentiform Loewenfeld,3.3.8,m,606.4026999999769,17,word
263,1,M,2,Lentiform Loewenfeld,3.3.8,m,425.4653999999864,17,word
264,0,C,5,Lentiform Loewenfeld,3.3.8,m,362.96999999985565,17,nonword
265,0,M,2,Lentiform Loewenfeld,3.3.8,c,613.9270000000251,17,word
266,1,C,5,Lentiform Loewenfeld,3.3.8,c,453.8546999999089,17,nonword
267,0,M,3,Lentiform Loewenfeld,3.3.8,c,586.2929000001168,17,word
268,1,M,7,Lentiform Loewenfeld,3.3.8,m,567.9337999999989,17,word
269,1,M,3,Lentiform Loewenfeld,3.3.8,m,397.33970000001136,17,word
270,0,M,1,Lentiform Loewenfeld,3.3.8,c,470.98340000002645,17,word
271,1,C,6,Lentiform Loewenfeld,3.3.8,c,508.91849999991246,17,nonword
272,1,M,7,Lentiform Loewenfeld,3.3.8,m,562.7239999999292,17,word
273,1,M,7,Lentiform Loewenfeld,3.3.8,m,545.5072999999393,17,word
274,1,M,4,Lentiform Loewenfeld,3.3.8,m,558.5887000000803,17,word
275,0,C,4,Lentiform Loewenfeld,3.3.8,m,476.3501000000397,17,nonword
276,1,C,3,Lentiform Loewenfeld,3.3.8,c,564.1734999999171,17,nonword
277,1,M,5,Lentiform Loewenfeld,3.3.8,m,634.2330000000075,17,word
278,1,C,1,Lentiform Loewenfeld,3.3.8,c,544.2064000000246,17,nonword
279,1,M,7,Lentiform Loewenfeld,3.3.8,m,720.7696999999462,17,word
280,1,M,6,Lentiform Loewenfeld,3.3.8,m,421.01659999997355,17,word
281,0,C,3,Lentiform Loewenfeld,3.3.8,m,400.46669999999,17,nonword
282,1,M,1,Lentiform Loewenfeld,3.3.8,m,472.9227999999421,17,word
283,1,C,3,Lentiform Loewenfeld,3.3.8,c,543.3675000001676,17,nonword
284,1,M,6,Lentiform Loewenfeld,3.3.8,m,483.46710000000894,17,word
285,1,M,5,Lentiform Loewenfeld,3.3.8,m,399.7257000000682,17,word
286,1,M,3,Lentiform Loewenfeld,3.3.8,m,438.35820000013337,17,word
287,1,M,4,Lentiform Loewenfeld,3.3.8,m,421.8337000000756,17,word
288,0,C,5,Lentiform Loewenfeld,3.3.8,m,442.2406999999657,17,nonword
289,1,C,3,Lentiform Loewenfeld,3.3.8,c,528.6720000000205,17,nonword
290,1,M,3,Lentiform Loewenfeld,3.3.8,m,497.1369000000413,17,word
291,1,M,4,Lentiform Loewenfeld,3.3.8,m,607.404099999927,17,word
292,1,M,5,Lentiform Loewenfeld,3.3.8,m,544.5265000000363,17,word
293,1,C,6,Lentiform Loewenfeld,3.3.8,c,606.6608999999007,17,nonword
294,1,C,1,Lentiform Loewenfeld,3.3.8,c,859.6368999999249,17,nonword
295,1,C,2,Lentiform Loewenfeld,3.3.8,c,547.4728999999352,17,nonword
296,1,C,7,Lentiform Loewenfeld,3.3.8,c,419.2448999999324,17,nonword
297,1,M,6,Lentiform Loewenfeld,3.3.8,m,592.1796000000322,17,word
298,1,M,4,Lentiform Loewenfeld,3.3.8,m,378.9993999999715,17,word
299,1,C,7,Lentiform Loewenfeld,3.3.8,c,636.9313000000548,17,nonword
300,1,M,5,Lentiform Loewenfeld,3.3.8,m,445.68900000012945,17,word
301,1,C,2,Lentiform Loewenfeld,3.3.8,c,513.2905000000028,17,nonword
302,0,M,7,Lentiform Loewenfeld,3.3.8,c,477.3280000000959,17,word
303,1,C,1,Lentiform Loewenfeld,3.3.8,c,509.03570000000764,17,nonword
304,1,C,7,Lentiform Loewenfeld,3.3.8,c,548.9738000000361,17,nonword
305,1,M,2,Lentiform Loewenfeld,3.3.8,m,548.8884000000544,17,word
306,1,M,7,Lentiform Loewenfeld,3.3.8,m,522.044899999979,17,word
307,1,C,6,Lentiform Loewenfeld,3.3.8,c,494.67130000004545,17,nonword
308,1,M,2,Lentiform Loewenfeld,3.3.8,m,396.39569999999367,17,word
309,1,C,4,Lentiform Loewenfeld,3.3.8,c,580.9933999999193,17,nonword
310,1,M,5,Lentiform Loewenfeld,3.3.8,m,386.0932999999495,17,word
311,1,M,3,Lentiform Loewenfeld,3.3.8,m,848.7452999999514,17,word
312,1,C,2,Lentiform Loewenfeld,3.3.8,c,482.15240000002086,17,nonword
313,1,C,4,Lentiform Loewenfeld,3.3.8,c,481.0801999998512,17,nonword
314,1,M,2,Lentiform Loewenfeld,3.3.8,m,555.8632999999681,17,word
315,1,M,7,Lentiform Loewenfeld,3.3.8,m,393.3356999999378,17,word
316,1,M,6,Lentiform Loewenfeld,3.3.8,m,331.7615999998525,17,word
317,0,C,4,Lentiform Loewenfeld,3.3.8,m,387.9094999998342,17,nonword
318,1,M,2,Lentiform Loewenfeld,3.3.8,m,527.0529000001261,17,word
319,1,M,6,Lentiform Loewenfeld,3.3.8,m,409.67789999989327,17,word
320,1,M,2,Lentiform Loewenfeld,3.3.8,m,387.1002999998164,17,word
321,0,M,2,Lentiform Loewenfeld,3.3.8,c,569.6813999998849,17,word
322,1,C,5,Lentiform Loewenfeld,3.3.8,c,535.8047000000952,17,nonword
323,1,M,6,Lentiform Loewenfeld,3.3.8,m,499.41010000009555,17,word
324,1,M,6,Lentiform Loewenfeld,3.3.8,m,420.55369999993127,17,word
325,1,M,6,Lentiform Loewenfeld,3.3.8,m,390.2807999999495,17,word
326,1,M,6,Lentiform Loewenfeld,3.3.8,m,355.76529999997,17,word
327,1,C,2,Lentiform Loewenfeld,3.3.8,c,442.5855000000447,17,nonword
328,1,M,6,Lentiform Loewenfeld,3.3.8,m,458.8479000000516,17,word
329,0,C,5,Lentiform Loewenfeld,3.3.8,m,400.12450000003446,17,nonword
330,0,C,1,Lentiform Loewenfeld,3.3.8,m,457.08400000003166,17,nonword
331,1,M,5,Lentiform Loewenfeld,3.3.8,m,467.00800000003073,17,word
332,1,C,1,Lentiform Loewenfeld,3.3.8,c,527.0140000000829,17,nonword
333,1,M,6,Lentiform Loewenfeld,3.3.8,m,699.9340999999549,17,word
334,1,C,2,Lentiform Loewenfeld,3.3.8,c,551.0311999999685,17,nonword
335,1,C,7,Lentiform Loewenfeld,3.3.8,c,644.6496999998344,17,nonword
336,1,M,3,Lentiform Loewenfeld,3.3.8,m,441.4082999997772,17,word
337,1,C,7,Lentiform Loewenfeld,3.3.8,c,652.217399999965,17,nonword
338,1,M,1,Lentiform Loewenfeld,3.3.8,m,795.1494999998249,17,word
339,1,C,7,Lentiform Loewenfeld,3.3.8,c,508.56239999993704,17,nonword
340,1,C,7,Lentiform Loewenfeld,3.3.8,c,528.8649999998743,17,nonword
341,1,C,3,Lentiform Loewenfeld,3.3.8,c,523.779799999902,17,nonword
342,1,M,2,Lentiform Loewenfeld,3.3.8,m,443.4011000000173,17,word
343,1,M,7,Lentiform Loewenfeld,3.3.8,m,414.47400000004563,17,word
344,0,C,2,Lentiform Loewenfeld,3.3.8,m,384.91700000001583,17,nonword
345,1,M,1,Lentiform Loewenfeld,3.3.8,m,362.09279999986757,17,word
346,1,M,1,Lentiform Loewenfeld,3.3.8,m,347.00500000000466,17,word
347,1,M,3,Lentiform Loewenfeld,3.3.8,m,405.6269999999785,17,word
348,1,C,7,Lentiform Loewenfeld,3.3.8,c,628.2998000000371,17,nonword
349,1,C,1,Lentiform Loewenfeld,3.3.8,c,535.5520000000251,17,nonword
350,1,C,5,Lentiform Loewenfeld,3.3.8,c,582.9932999998564,17,nonword
351,0,M,1,Lentiform Loewenfeld,3.3.8,c,415.75789999985136,17,word
352,1,C,1,Lentiform Loewenfeld,3.3.8,c,438.1840000000084,17,nonword
353,1,C,4,Lentiform Loewenfeld,3.3.8,c,539.3347999999532,17,nonword
354,1,M,2,Lentiform Loewenfeld,3.3.8,m,518.1220999999205,17,word
355,0,M,7,Lentiform Loewenfeld,3.3.8,c,497.04160000011325,17,word
356,1,M,3,Lentiform Loewenfeld,3.3.8,m,669.1731000002474,17,word
357,1,C,5,Lentiform Loewenfeld,3.3.8,c,587.4301999998279,17,nonword
358,1,C,6,Lentiform Loewenfeld,3.3.8,c,524.0293000000529,17,nonword
359,1,M,6,Lentiform Loewenfeld,3.3.8,m,538.4525999999605,17,word
360,1,C,7,Lentiform Loewenfeld,3.3.8,c,600.5985000000801,17,nonword
361,1,M,1,Lentiform Loewenfeld,3.3.8,m,512.9206000000704,17,word
362,1,M,6,Lentiform Loewenfeld,3.3.8,m,486.25470000016503,17,word
363,1,M,2,Lentiform Loewenfeld,3.3.8,m,502.40179999975953,17,word
364,1,M,1,Lentiform Loewenfeld,3.3.8,m,412.8672000000952,17,word
365,0,C,2,Lentiform Loewenfeld,3.3.8,m,386.62899999995716,17,nonword
366,1,C,5,Lentiform Loewenfeld,3.3.8,c,561.5573999999324,17,nonword
367,1,M,1,Lentiform Loewenfeld,3.3.8,m,504.04710000019986,17,word
368,1,C,3,Lentiform Loewenfeld,3.3.8,c,636.4768000000622,17,nonword
369,1,M,2,Lentiform Loewenfeld,3.3.8,m,522.2107000000542,17,word
370,0,C,4,Lentiform Loewenfeld,3.3.8,m,390.5533000001451,17,nonword
371,1,C,7,Lentiform Loewenfeld,3.3.8,c,510.9644999998855,17,nonword
372,0,C,3,Lentiform Loewenfeld,3.3.8,m,587.6055000000633,17,nonword
373,1,C,3,Lentiform Loewenfeld,3.3.8,c,784.0496999998577,17,nonword
374,1,M,2,Lentiform Loewenfeld,3.3.8,m,514.104999999865,17,word
375,1,M,4,Lentiform Loewenfeld,3.3.8,m,527.6071000000229,17,word
376,1,M,1,Lentiform Loewenfeld,3.3.8,m,516.3498000000836,17,word
377,1,C,6,Lentiform Loewenfeld,3.3.8,c,573.263299999875,17,nonword
378,1,M,3,Lentiform Loewenfeld,3.3.8,m,690.3965000000317,17,word
379,1,C,3,Lentiform Loewenfeld,3.3.8,c,734.7852999999886,17,nonword
380,1,M,4,Lentiform Loewenfeld,3.3.8,m,599.0604000000749,17,word
381,1,C,3,Lentiform Loewenfeld,3.3.8,c,527.0237999999663,17,nonword
382,1,M,6,Lentiform Loewenfeld,3.3.8,m,429.9477999999653,17,word
383,1,C,4,Lentiform Loewenfeld,3.3.8,c,499.0673000001116,17,nonword
384,0,C,6,Lentiform Loewenfeld,3.3.8,m,529.8510999999708,17,nonword
385,0,M,7,Lentiform Loewenfeld,3.3.8,c,531.4921000000322,17,word
386,1,C,7,Lentiform Loewenfeld,3.3.8,c,527.1119000000181,17,nonword
387,1,C,4,Lentiform Loewenfeld,3.3.8,c,473.0350999998627,17,nonword
388,0,C,1,Lentiform Loewenfeld,3.3.8,m,521.2928999997675,17,nonword
389,1,M,3,Lentiform Loewenfeld,3.3.8,m,518.2955000001239,17,word
390,1,C,7,Lentiform Loewenfeld,3.3.8,c,460.1818000000203,17,nonword
391,0,M,4,Lentiform Loewenfeld,3.3.8,c,566.8218000001507,17,word
392,1,C,7,Lentiform Loewenfeld,3.3.8,c,528.7353999998886,17,nonword
393,1,C,5,Lentiform Loewenfeld,3.3.8,c,494.86149999999907,17,nonword
394,1,M,6,Lentiform Loewenfeld,3.3.8,m,627.4624999999069,17,word
395,1,M,7,Lentiform Loewenfeld,3.3.8,m,557.5849999999627,17,word
396,1,M,4,Lentiform Loewenfeld,3.3.8,m,453.15239999978803,17,word
397,1,C,6,Lentiform Loewenfeld,3.3.8,c,847.9860999999801,17,nonword
398,1,M,5,Lentiform Loewenfeld,3.3.8,m,518.5119999999879,17,word
399,1,M,7,Lentiform Loewenfeld,3.3.8,m,451.43350000004284,17,word
400,0,C,7,Lentiform Loewenfeld,3.3.8,m,372.9157000002451,17,nonword
401,0,C,4,Lentiform Loewenfeld,3.3.8,m,465.5350999997463,17,nonword
402,1,M,2,Lentiform Loewenfeld,3.3.8,m,459.65170000016224,17,word
403,1,C,2,Lentiform Loewenfeld,3.3.8,c,814.9335999997566,17,nonword
404,1,C,2,Lentiform Loewenfeld,3.3.8,c,831.5053999999072,17,nonword
405,1,M,1,Lentiform Loewenfeld,3.3.8,m,557.0630999999121,17,word
406,1,C,5,Lentiform Loewenfeld,3.3.8,c,620.8182999999262,17,nonword
407,1,C,6,Lentiform Loewenfeld,3.3.8,c,561.4157000000123,17,nonword
408,1,C,6,Lentiform Loewenfeld,3.3.8,c,734.5413000001572,17,nonword
409,1,M,1,Lentiform Loewenfeld,3.3.8,m,576.4465000000782,17,word
410,1,M,5,Lentiform Loewenfeld,3.3.8,m,578.7571000000462,17,word
411,1,C,3,Lentiform Loewenfeld,3.3.8,c,486.6662999999244,17,nonword
412,1,C,1,Lentiform Loewenfeld,3.3.8,c,487.6398999998346,17,nonword
413,0,M,5,Lentiform Loewenfeld,3.3.8,c,604.9092999999411,17,word
414,1,M,7,Lentiform Loewenfeld,3.3.8,m,566.3422000003047,17,word
415,1,M,4,Lentiform Loewenfeld,3.3.8,m,469.4193000001833,17,word
416,0,C,6,Lentiform Loewenfeld,3.3.8,m,553.0809000001755,17,nonword
417,1,M,4,Lentiform Loewenfeld,3.3.8,m,491.66279999981634,17,word
418,1,M,2,Lentiform Loewenfeld,3.3.8,m,711.9351000001188,17,word
419,1,C,6,Lentiform Loewenfeld,3.3.8,c,656.3688999998849,17,nonword
