Unnamed: 0,correct_keyboard_response_1,correct_response,flanker_condition,opensesame_codename,opensesame_version,response_keyboard_response_1,response_time_keyboard_response_1,subject_nr,target_type
0,1,M,7,Lentiform Loewenfeld,3.3.8,m,658.8737000000256,47,word
1,1,C,2,Lentiform Loewenfeld,3.3.8,c,542.6240000000107,47,nonword
2,0,C,4,Lentiform Loewenfeld,3.3.8,m,595.9568999999901,47,nonword
3,1,M,2,Lentiform Loewenfeld,3.3.8,m,724.3318999999901,47,word
4,1,M,3,Lentiform Loewenfeld,3.3.8,m,708.1976999999897,47,word
5,1,C,2,Lentiform Loewenfeld,3.3.8,c,576.8696999999811,47,nonword
6,1,C,6,Lentiform Loewenfeld,3.3.8,c,593.9538999999932,47,nonword
7,0,M,6,Lentiform Loewenfeld,3.3.8,c,742.6064999999944,47,word
8,1,C,6,Lentiform Loewenfeld,3.3.8,c,768.0934999999881,47,nonword
9,1,M,3,Lentiform Loewenfeld,3.3.8,m,665.7962000000116,47,word
10,1,M,6,Lentiform Loewenfeld,3.3.8,m,600.6073999999498,47,word
11,1,C,2,Lentiform Loewenfeld,3.3.8,c,588.0400000000081,47,nonword
12,1,C,4,Lentiform Loewenfeld,3.3.8,c,1043.0719999999856,47,nonword
13,1,C,4,Lentiform Loewenfeld,3.3.8,c,655.4668000000238,47,nonword
14,1,M,2,Lentiform Loewenfeld,3.3.8,m,599.1651000000129,47,word
15,1,M,2,Lentiform Loewenfeld,3.3.8,m,555.0042999999714,47,word
16,1,C,3,Lentiform Loewenfeld,3.3.8,c,758.7027999999991,47,nonword
17,1,M,1,Lentiform Loewenfeld,3.3.8,m,570.445800000045,47,word
18,1,C,1,Lentiform Loewenfeld,3.3.8,c,707.3047999999835,47,nonword
19,1,M,7,Lentiform Loewenfeld,3.3.8,m,644.3501000000106,47,word
20,1,M,1,Lentiform Loewenfeld,3.3.8,m,650.5958000000392,47,word
21,1,C,7,Lentiform Loewenfeld,3.3.8,c,561.5749000000069,47,nonword
22,1,M,4,Lentiform Loewenfeld,3.3.8,m,629.1490000000049,47,word
23,1,M,7,Lentiform Loewenfeld,3.3.8,m,559.2021999999706,47,word
24,1,C,5,Lentiform Loewenfeld,3.3.8,c,636.2135999999882,47,nonword
25,1,M,1,Lentiform Loewenfeld,3.3.8,m,620.8732999999775,47,word
26,1,M,4,Lentiform Loewenfeld,3.3.8,m,502.9350000000268,47,word
27,1,M,1,Lentiform Loewenfeld,3.3.8,m,512.4719999999797,47,word
28,0,M,4,Lentiform Loewenfeld,3.3.8,c,1257.3169999999518,47,word
29,1,C,7,Lentiform Loewenfeld,3.3.8,c,726.0837999999931,47,nonword
30,0,C,2,Lentiform Loewenfeld,3.3.8,m,1374.411299999978,47,nonword
31,1,C,3,Lentiform Loewenfeld,3.3.8,c,1498.4036999999953,47,nonword
32,1,C,7,Lentiform Loewenfeld,3.3.8,c,725.2113000000536,47,nonword
33,1,M,5,Lentiform Loewenfeld,3.3.8,m,752.9500999999873,47,word
34,1,M,6,Lentiform Loewenfeld,3.3.8,m,549.1237999999721,47,word
35,1,M,1,Lentiform Loewenfeld,3.3.8,m,567.8311000000103,47,word
36,1,C,6,Lentiform Loewenfeld,3.3.8,c,658.5328999999911,47,nonword
37,1,M,4,Lentiform Loewenfeld,3.3.8,m,892.8692999999912,47,word
38,1,M,6,Lentiform Loewenfeld,3.3.8,m,578.6549999999988,47,word
39,1,M,7,Lentiform Loewenfeld,3.3.8,m,757.8744999999763,47,word
40,1,C,4,Lentiform Loewenfeld,3.3.8,c,888.624599999981,47,nonword
41,1,M,6,Lentiform Loewenfeld,3.3.8,m,611.3864000000467,47,word
42,1,C,7,Lentiform Loewenfeld,3.3.8,c,772.7278000000224,47,nonword
43,1,M,5,Lentiform Loewenfeld,3.3.8,m,617.7259000000195,47,word
44,1,M,3,Lentiform Loewenfeld,3.3.8,m,799.6109999999753,47,word
45,0,C,7,Lentiform Loewenfeld,3.3.8,m,907.2685000000056,47,nonword
46,1,M,3,Lentiform Loewenfeld,3.3.8,m,543.959199999983,47,word
47,1,C,6,Lentiform Loewenfeld,3.3.8,c,680.6928999999946,47,nonword
48,1,C,3,Lentiform Loewenfeld,3.3.8,c,632.5355000000272,47,nonword
49,1,M,3,Lentiform Loewenfeld,3.3.8,m,550.3427999999549,47,word
50,1,M,1,Lentiform Loewenfeld,3.3.8,m,590.3720000000321,47,word
51,1,C,6,Lentiform Loewenfeld,3.3.8,c,704.4012999999977,47,nonword
52,0,C,6,Lentiform Loewenfeld,3.3.8,m,668.7505000000237,47,nonword
53,1,C,7,Lentiform Loewenfeld,3.3.8,c,855.5486999999848,47,nonword
54,1,M,7,Lentiform Loewenfeld,3.3.8,m,735.2770000000601,47,word
55,0,M,7,Lentiform Loewenfeld,3.3.8,c,1425.1356000000378,47,word
56,1,C,2,Lentiform Loewenfeld,3.3.8,c,978.874599999981,47,nonword
57,1,C,5,Lentiform Loewenfeld,3.3.8,c,852.0188000000198,47,nonword
58,1,M,5,Lentiform Loewenfeld,3.3.8,m,701.8680000000168,47,word
59,1,M,6,Lentiform Loewenfeld,3.3.8,m,562.7032999999356,47,word
60,1,C,3,Lentiform Loewenfeld,3.3.8,c,875.9375,47,nonword
61,1,C,5,Lentiform Loewenfeld,3.3.8,c,693.7437999999383,47,nonword
62,1,C,2,Lentiform Loewenfeld,3.3.8,c,775.0732000000426,47,nonword
63,1,M,4,Lentiform Loewenfeld,3.3.8,m,733.4290000000037,47,word
64,1,C,2,Lentiform Loewenfeld,3.3.8,c,1424.9385000000475,47,nonword
65,1,C,5,Lentiform Loewenfeld,3.3.8,c,942.0062000000034,47,nonword
66,1,C,3,Lentiform Loewenfeld,3.3.8,c,638.4480999999796,47,nonword
67,1,C,7,Lentiform Loewenfeld,3.3.8,c,1174.5293999999994,47,nonword
68,1,M,7,Lentiform Loewenfeld,3.3.8,m,668.9444000000367,47,word
69,1,M,6,Lentiform Loewenfeld,3.3.8,m,1077.2664999999688,47,word
70,1,M,2,Lentiform Loewenfeld,3.3.8,m,553.076299999957,47,word
71,0,C,5,Lentiform Loewenfeld,3.3.8,m,652.7728000000352,47,nonword
72,1,M,6,Lentiform Loewenfeld,3.3.8,m,717.8657000000239,47,word
73,1,M,3,Lentiform Loewenfeld,3.3.8,m,792.7858000000124,47,word
74,1,M,1,Lentiform Loewenfeld,3.3.8,m,766.5305000000517,47,word
75,0,M,7,Lentiform Loewenfeld,3.3.8,c,549.6761999999871,47,word
76,1,C,1,Lentiform Loewenfeld,3.3.8,c,614.5939999999828,47,nonword
77,1,M,2,Lentiform Loewenfeld,3.3.8,m,884.4256999999634,47,word
78,1,M,3,Lentiform Loewenfeld,3.3.8,m,540.3907999999938,47,word
79,1,C,2,Lentiform Loewenfeld,3.3.8,c,613.7724000000162,47,nonword
80,0,C,6,Lentiform Loewenfeld,3.3.8,m,1052.4314999999478,47,nonword
81,1,M,4,Lentiform Loewenfeld,3.3.8,m,520.7802000000374,47,word
82,1,M,1,Lentiform Loewenfeld,3.3.8,m,586.9770000000135,47,word
83,1,C,2,Lentiform Loewenfeld,3.3.8,c,595.1786999999895,47,nonword
84,1,M,3,Lentiform Loewenfeld,3.3.8,m,805.7214999999851,47,word
85,1,C,1,Lentiform Loewenfeld,3.3.8,c,730.0491000000038,47,nonword
86,1,C,4,Lentiform Loewenfeld,3.3.8,c,693.2105999999912,47,nonword
87,1,C,7,Lentiform Loewenfeld,3.3.8,c,868.5439000000479,47,nonword
88,1,M,1,Lentiform Loewenfeld,3.3.8,m,610.8712999999989,47,word
89,1,C,6,Lentiform Loewenfeld,3.3.8,c,768.546800000011,47,nonword
90,1,M,5,Lentiform Loewenfeld,3.3.8,m,613.2409000000334,47,word
91,0,M,4,Lentiform Loewenfeld,3.3.8,c,753.6044000000111,47,word
92,1,C,5,Lentiform Loewenfeld,3.3.8,c,576.4856999999611,47,nonword
93,1,C,1,Lentiform Loewenfeld,3.3.8,c,675.5764999999665,47,nonword
94,1,M,2,Lentiform Loewenfeld,3.3.8,m,565.4581999999937,47,word
95,1,C,4,Lentiform Loewenfeld,3.3.8,c,752.8858999999939,47,nonword
96,1,M,7,Lentiform Loewenfeld,3.3.8,m,627.7035000000033,47,word
97,1,M,1,Lentiform Loewenfeld,3.3.8,m,498.2086999999592,47,word
98,1,C,6,Lentiform Loewenfeld,3.3.8,c,650.6203999999561,47,nonword
99,1,M,6,Lentiform Loewenfeld,3.3.8,m,672.4954999999609,47,word
100,1,C,7,Lentiform Loewenfeld,3.3.8,c,849.6700999999885,47,nonword
101,1,M,3,Lentiform Loewenfeld,3.3.8,m,608.3547999999719,47,word
102,1,M,6,Lentiform Loewenfeld,3.3.8,m,623.5322000000742,47,word
103,1,C,2,Lentiform Loewenfeld,3.3.8,c,595.4083999999566,47,nonword
104,1,C,6,Lentiform Loewenfeld,3.3.8,c,989.4532000000472,47,nonword
105,1,M,7,Lentiform Loewenfeld,3.3.8,m,583.5630999999703,47,word
106,1,M,7,Lentiform Loewenfeld,3.3.8,m,647.806099999987,47,word
107,1,M,5,Lentiform Loewenfeld,3.3.8,m,578.7860000000219,47,word
108,1,M,2,Lentiform Loewenfeld,3.3.8,m,557.5531999999657,47,word
109,1,C,3,Lentiform Loewenfeld,3.3.8,c,875.6321000000462,47,nonword
110,1,M,4,Lentiform Loewenfeld,3.3.8,m,567.6034999999683,47,word
111,1,C,5,Lentiform Loewenfeld,3.3.8,c,692.5982000000658,47,nonword
112,1,M,4,Lentiform Loewenfeld,3.3.8,m,663.2708000000566,47,word
113,1,C,1,Lentiform Loewenfeld,3.3.8,c,678.6394999999902,47,nonword
114,1,M,3,Lentiform Loewenfeld,3.3.8,m,995.1661000000313,47,word
115,1,M,4,Lentiform Loewenfeld,3.3.8,m,703.8207999999868,47,word
116,1,M,5,Lentiform Loewenfeld,3.3.8,m,614.6535000000149,47,word
117,1,M,3,Lentiform Loewenfeld,3.3.8,m,600.5060999999987,47,word
118,1,C,7,Lentiform Loewenfeld,3.3.8,c,698.3030000000144,47,nonword
119,1,C,7,Lentiform Loewenfeld,3.3.8,c,1296.9513000000152,47,nonword
120,1,C,2,Lentiform Loewenfeld,3.3.8,c,870.0518000000156,47,nonword
121,1,C,3,Lentiform Loewenfeld,3.3.8,c,872.3499000000302,47,nonword
122,1,M,2,Lentiform Loewenfeld,3.3.8,m,573.4950999999419,47,word
123,1,C,5,Lentiform Loewenfeld,3.3.8,c,544.5271000000066,47,nonword
124,1,C,3,Lentiform Loewenfeld,3.3.8,c,608.0742999999784,47,nonword
125,1,M,2,Lentiform Loewenfeld,3.3.8,m,586.8017000000109,47,word
126,0,M,6,Lentiform Loewenfeld,3.3.8,c,538.4274999999325,47,word
127,1,C,3,Lentiform Loewenfeld,3.3.8,c,730.8532000000705,47,nonword
128,1,C,1,Lentiform Loewenfeld,3.3.8,c,692.5488999999361,47,nonword
129,1,C,4,Lentiform Loewenfeld,3.3.8,c,510.2070999999996,47,nonword
130,1,M,4,Lentiform Loewenfeld,3.3.8,m,578.9970999999787,47,word
131,1,C,7,Lentiform Loewenfeld,3.3.8,c,613.9560999998939,47,nonword
132,1,C,1,Lentiform Loewenfeld,3.3.8,c,631.3232999999891,47,nonword
133,1,M,2,Lentiform Loewenfeld,3.3.8,m,530.4014999999199,47,word
134,1,C,3,Lentiform Loewenfeld,3.3.8,c,609.3839000000153,47,nonword
135,1,C,3,Lentiform Loewenfeld,3.3.8,c,641.0828000000911,47,nonword
136,1,M,5,Lentiform Loewenfeld,3.3.8,m,515.7547999999952,47,word
137,1,C,3,Lentiform Loewenfeld,3.3.8,c,603.976399999985,47,nonword
138,1,M,4,Lentiform Loewenfeld,3.3.8,m,653.8042000000132,47,word
139,0,M,3,Lentiform Loewenfeld,3.3.8,c,650.1642999999458,47,word
140,1,M,4,Lentiform Loewenfeld,3.3.8,m,618.1532000000589,47,word
141,1,C,5,Lentiform Loewenfeld,3.3.8,c,658.1904000000213,47,nonword
142,1,C,7,Lentiform Loewenfeld,3.3.8,c,699.2354000000632,47,nonword
143,1,C,7,Lentiform Loewenfeld,3.3.8,c,678.2395999999717,47,nonword
144,1,M,4,Lentiform Loewenfeld,3.3.8,m,536.3964000000851,47,word
145,1,M,5,Lentiform Loewenfeld,3.3.8,m,613.148499999952,47,word
146,1,C,7,Lentiform Loewenfeld,3.3.8,c,525.007799999963,47,nonword
147,1,M,1,Lentiform Loewenfeld,3.3.8,m,596.080100000021,47,word
148,1,M,1,Lentiform Loewenfeld,3.3.8,m,790.5991000000504,47,word
149,1,M,7,Lentiform Loewenfeld,3.3.8,m,543.6396999999997,47,word
150,1,C,5,Lentiform Loewenfeld,3.3.8,c,525.3274000000674,47,nonword
151,0,C,5,Lentiform Loewenfeld,3.3.8,m,704.2021999999415,47,nonword
152,1,C,7,Lentiform Loewenfeld,3.3.8,c,872.405299999984,47,nonword
153,1,M,1,Lentiform Loewenfeld,3.3.8,m,842.7127000000328,47,word
154,1,C,7,Lentiform Loewenfeld,3.3.8,c,594.0104000000283,47,nonword
155,0,C,4,Lentiform Loewenfeld,3.3.8,m,598.5797999999486,47,nonword
156,1,M,3,Lentiform Loewenfeld,3.3.8,m,651.2236000000266,47,word
157,1,C,1,Lentiform Loewenfeld,3.3.8,c,626.719700000016,47,nonword
158,1,C,1,Lentiform Loewenfeld,3.3.8,c,639.305900000094,47,nonword
159,1,M,6,Lentiform Loewenfeld,3.3.8,m,709.1869000000879,47,word
160,1,M,6,Lentiform Loewenfeld,3.3.8,m,764.5370000000694,47,word
161,1,M,5,Lentiform Loewenfeld,3.3.8,m,549.006800000032,47,word
162,1,M,5,Lentiform Loewenfeld,3.3.8,m,499.1024000000325,47,word
163,1,C,4,Lentiform Loewenfeld,3.3.8,c,456.8008999999729,47,nonword
164,0,C,6,Lentiform Loewenfeld,3.3.8,m,537.8220999999903,47,nonword
165,1,M,4,Lentiform Loewenfeld,3.3.8,m,654.2148000000161,47,word
166,1,M,6,Lentiform Loewenfeld,3.3.8,m,860.7875000000349,47,word
167,1,M,5,Lentiform Loewenfeld,3.3.8,m,635.7376999999397,47,word
168,1,C,2,Lentiform Loewenfeld,3.3.8,c,687.9034999999567,47,nonword
169,1,C,5,Lentiform Loewenfeld,3.3.8,c,921.4187000000384,47,nonword
170,1,M,1,Lentiform Loewenfeld,3.3.8,m,596.7474999998813,47,word
171,1,M,3,Lentiform Loewenfeld,3.3.8,m,677.9450000000652,47,word
172,0,M,2,Lentiform Loewenfeld,3.3.8,c,919.9554999999236,47,word
173,0,M,2,Lentiform Loewenfeld,3.3.8,c,635.9358000000357,47,word
174,1,C,4,Lentiform Loewenfeld,3.3.8,c,696.1523000000161,47,nonword
175,1,C,6,Lentiform Loewenfeld,3.3.8,c,717.6015999999363,47,nonword
176,1,M,4,Lentiform Loewenfeld,3.3.8,m,573.4954999999609,47,word
177,1,C,3,Lentiform Loewenfeld,3.3.8,c,568.9097999999067,47,nonword
178,1,M,6,Lentiform Loewenfeld,3.3.8,m,773.2013999999035,47,word
179,1,M,2,Lentiform Loewenfeld,3.3.8,m,804.4116999999387,47,word
180,1,M,5,Lentiform Loewenfeld,3.3.8,m,517.9058000000659,47,word
181,1,C,5,Lentiform Loewenfeld,3.3.8,c,618.951599999913,47,nonword
182,1,C,5,Lentiform Loewenfeld,3.3.8,c,706.4796999999089,47,nonword
183,0,M,3,Lentiform Loewenfeld,3.3.8,c,632.7844000000041,47,word
184,1,C,6,Lentiform Loewenfeld,3.3.8,c,692.4148000001442,47,nonword
185,1,C,6,Lentiform Loewenfeld,3.3.8,c,753.6968999999808,47,nonword
186,1,C,6,Lentiform Loewenfeld,3.3.8,c,553.5164000000805,47,nonword
187,1,C,1,Lentiform Loewenfeld,3.3.8,c,641.0368000000017,47,nonword
188,1,M,2,Lentiform Loewenfeld,3.3.8,m,611.7211999999126,47,word
189,1,M,3,Lentiform Loewenfeld,3.3.8,m,572.0814000000246,47,word
190,1,C,3,Lentiform Loewenfeld,3.3.8,c,655.2570000000997,47,nonword
191,0,C,3,Lentiform Loewenfeld,3.3.8,m,714.9479999999749,47,nonword
192,1,M,2,Lentiform Loewenfeld,3.3.8,m,619.3791000000201,47,word
193,1,C,3,Lentiform Loewenfeld,3.3.8,c,680.6331999999238,47,nonword
194,1,M,5,Lentiform Loewenfeld,3.3.8,m,702.655999999959,47,word
195,1,M,7,Lentiform Loewenfeld,3.3.8,m,563.2360000000335,47,word
196,1,M,2,Lentiform Loewenfeld,3.3.8,m,475.923300000024,47,word
197,1,C,4,Lentiform Loewenfeld,3.3.8,c,621.3014999999432,47,nonword
198,0,M,1,Lentiform Loewenfeld,3.3.8,c,713.5470999998506,47,word
199,1,C,4,Lentiform Loewenfeld,3.3.8,c,737.8893000000389,47,nonword
200,1,M,2,Lentiform Loewenfeld,3.3.8,m,549.4960000000428,47,word
201,1,C,3,Lentiform Loewenfeld,3.3.8,c,760.5486999999266,47,nonword
202,0,M,6,Lentiform Loewenfeld,3.3.8,c,893.2434999999823,47,word
203,1,M,1,Lentiform Loewenfeld,3.3.8,m,557.5851000000257,47,word
204,1,M,4,Lentiform Loewenfeld,3.3.8,m,513.4488999999594,47,word
205,1,C,6,Lentiform Loewenfeld,3.3.8,c,614.1764999999432,47,nonword
206,1,C,7,Lentiform Loewenfeld,3.3.8,c,613.700899999938,47,nonword
207,1,C,5,Lentiform Loewenfeld,3.3.8,c,715.0529000000097,47,nonword
208,0,C,4,Lentiform Loewenfeld,3.3.8,m,604.4054999999935,47,nonword
209,1,M,5,Lentiform Loewenfeld,3.3.8,m,1077.76529999997,47,word
210,1,M,4,Lentiform Loewenfeld,3.3.8,m,563.8358000000007,47,word
211,1,M,4,Lentiform Loewenfeld,3.3.8,m,525.7560999999987,47,word
212,0,C,3,Lentiform Loewenfeld,3.3.8,m,788.9555999999866,47,nonword
213,1,M,1,Lentiform Loewenfeld,3.3.8,m,572.7664999999106,47,word
214,1,C,1,Lentiform Loewenfeld,3.3.8,c,487.62670000002254,47,nonword
215,1,M,6,Lentiform Loewenfeld,3.3.8,m,648.0078999998514,47,word
216,1,M,5,Lentiform Loewenfeld,3.3.8,m,548.3943000000436,47,word
217,1,M,7,Lentiform Loewenfeld,3.3.8,m,506.39340000005905,47,word
218,1,C,1,Lentiform Loewenfeld,3.3.8,c,1234.9934999999823,47,nonword
219,1,C,7,Lentiform Loewenfeld,3.3.8,c,773.2517000000225,47,nonword
220,0,C,7,Lentiform Loewenfeld,3.3.8,m,768.9640999999829,47,nonword
221,1,C,5,Lentiform Loewenfeld,3.3.8,c,647.2552000000142,47,nonword
222,1,M,7,Lentiform Loewenfeld,3.3.8,m,861.8471999999601,47,word
223,1,C,3,Lentiform Loewenfeld,3.3.8,c,615.5078999999678,47,nonword
224,0,C,3,Lentiform Loewenfeld,3.3.8,m,617.1983999998774,47,nonword
225,1,M,5,Lentiform Loewenfeld,3.3.8,m,1063.5592000000179,47,word
226,1,C,4,Lentiform Loewenfeld,3.3.8,c,797.7177999998676,47,nonword
227,1,C,3,Lentiform Loewenfeld,3.3.8,c,684.547700000112,47,nonword
228,1,C,2,Lentiform Loewenfeld,3.3.8,c,548.7611000000034,47,nonword
229,1,M,4,Lentiform Loewenfeld,3.3.8,m,473.4021000000648,47,word
230,1,M,5,Lentiform Loewenfeld,3.3.8,m,594.6603999999352,47,word
231,1,C,4,Lentiform Loewenfeld,3.3.8,c,698.5672999999952,47,nonword
232,1,M,3,Lentiform Loewenfeld,3.3.8,m,594.2016000000294,47,word
233,1,C,5,Lentiform Loewenfeld,3.3.8,c,560.4276000000536,47,nonword
234,0,C,7,Lentiform Loewenfeld,3.3.8,m,554.7719999999972,47,nonword
235,1,C,3,Lentiform Loewenfeld,3.3.8,c,628.9576999999117,47,nonword
236,0,C,3,Lentiform Loewenfeld,3.3.8,m,747.657600000035,47,nonword
237,1,M,6,Lentiform Loewenfeld,3.3.8,m,749.6883999999845,47,word
238,1,C,1,Lentiform Loewenfeld,3.3.8,c,674.5703000000212,47,nonword
239,1,C,1,Lentiform Loewenfeld,3.3.8,c,579.217699999921,47,nonword
240,1,C,7,Lentiform Loewenfeld,3.3.8,c,748.0751000000164,47,nonword
241,1,C,2,Lentiform Loewenfeld,3.3.8,c,704.2605000000913,47,nonword
242,1,M,2,Lentiform Loewenfeld,3.3.8,m,866.2591000000248,47,word
243,1,C,2,Lentiform Loewenfeld,3.3.8,c,737.8850999999559,47,nonword
244,1,M,6,Lentiform Loewenfeld,3.3.8,m,1098.9367000000784,47,word
245,1,M,4,Lentiform Loewenfeld,3.3.8,m,753.0130000000354,47,word
246,1,C,1,Lentiform Loewenfeld,3.3.8,c,719.5644999999786,47,nonword
247,1,C,1,Lentiform Loewenfeld,3.3.8,c,649.8977000000887,47,nonword
248,1,M,3,Lentiform Loewenfeld,3.3.8,m,601.9378000000725,47,word
249,1,C,5,Lentiform Loewenfeld,3.3.8,c,571.015000000014,47,nonword
250,1,M,6,Lentiform Loewenfeld,3.3.8,m,1087.3531000000658,47,word
251,1,M,7,Lentiform Loewenfeld,3.3.8,m,537.5239999999758,47,word
252,0,M,5,Lentiform Loewenfeld,3.3.8,c,724.080100000021,47,word
253,1,M,6,Lentiform Loewenfeld,3.3.8,m,583.2915000000503,47,word
254,1,C,4,Lentiform Loewenfeld,3.3.8,c,628.2898999999743,47,nonword
255,1,M,6,Lentiform Loewenfeld,3.3.8,m,523.9945999999763,47,word
256,1,C,6,Lentiform Loewenfeld,3.3.8,c,545.7176000000909,47,nonword
257,1,M,7,Lentiform Loewenfeld,3.3.8,m,452.90139999997336,47,word
258,1,M,7,Lentiform Loewenfeld,3.3.8,m,505.14710000006016,47,word
259,1,M,5,Lentiform Loewenfeld,3.3.8,m,471.20269999990705,47,word
260,1,C,2,Lentiform Loewenfeld,3.3.8,c,628.0618999999715,47,nonword
261,0,C,7,Lentiform Loewenfeld,3.3.8,m,610.4130000000587,47,nonword
262,1,M,3,Lentiform Loewenfeld,3.3.8,m,737.3121000000974,47,word
263,1,C,1,Lentiform Loewenfeld,3.3.8,c,591.0074000000022,47,nonword
264,1,C,7,Lentiform Loewenfeld,3.3.8,c,675.030700000003,47,nonword
265,1,C,2,Lentiform Loewenfeld,3.3.8,c,817.5575999999419,47,nonword
266,1,M,1,Lentiform Loewenfeld,3.3.8,m,604.2086999999592,47,word
267,1,M,5,Lentiform Loewenfeld,3.3.8,m,561.6861000000499,47,word
268,1,C,6,Lentiform Loewenfeld,3.3.8,c,607.9465000000782,47,nonword
269,1,M,6,Lentiform Loewenfeld,3.3.8,m,608.9750999999233,47,word
270,1,C,3,Lentiform Loewenfeld,3.3.8,c,555.0209000000032,47,nonword
271,1,C,4,Lentiform Loewenfeld,3.3.8,c,746.578600000008,47,nonword
272,1,C,2,Lentiform Loewenfeld,3.3.8,c,719.2833999999566,47,nonword
273,1,M,7,Lentiform Loewenfeld,3.3.8,m,561.1352999999654,47,word
274,1,M,4,Lentiform Loewenfeld,3.3.8,m,578.0320000001229,47,word
275,1,C,1,Lentiform Loewenfeld,3.3.8,c,591.8482000000076,47,nonword
276,1,M,7,Lentiform Loewenfeld,3.3.8,m,551.0807999998797,47,word
277,1,M,4,Lentiform Loewenfeld,3.3.8,m,611.7990000001155,47,word
278,1,C,2,Lentiform Loewenfeld,3.3.8,c,503.671800000011,47,nonword
279,1,C,7,Lentiform Loewenfeld,3.3.8,c,664.6959999999963,47,nonword
280,1,M,4,Lentiform Loewenfeld,3.3.8,m,520.7023000000045,47,word
281,1,C,5,Lentiform Loewenfeld,3.3.8,c,546.6034999999683,47,nonword
282,1,C,5,Lentiform Loewenfeld,3.3.8,c,709.142600000021,47,nonword
283,1,M,4,Lentiform Loewenfeld,3.3.8,m,582.483499999973,47,word
284,1,C,7,Lentiform Loewenfeld,3.3.8,c,489.17599999997765,47,nonword
285,1,M,3,Lentiform Loewenfeld,3.3.8,m,606.8927999999141,47,word
286,1,C,3,Lentiform Loewenfeld,3.3.8,c,613.439200000139,47,nonword
287,0,C,1,Lentiform Loewenfeld,3.3.8,m,690.3151000001235,47,nonword
288,1,C,1,Lentiform Loewenfeld,3.3.8,c,626.1679000001168,47,nonword
289,1,C,6,Lentiform Loewenfeld,3.3.8,c,702.3710000000428,47,nonword
290,1,M,3,Lentiform Loewenfeld,3.3.8,m,611.7189999999246,47,word
291,0,M,5,Lentiform Loewenfeld,3.3.8,c,527.1943999999203,47,word
292,1,M,2,Lentiform Loewenfeld,3.3.8,m,572.6629000001121,47,word
293,1,C,6,Lentiform Loewenfeld,3.3.8,c,604.2437999999383,47,nonword
294,1,C,1,Lentiform Loewenfeld,3.3.8,c,652.5827000000281,47,nonword
295,1,M,2,Lentiform Loewenfeld,3.3.8,m,635.0979000000516,47,word
296,1,M,7,Lentiform Loewenfeld,3.3.8,m,566.9568999998737,47,word
297,1,C,7,Lentiform Loewenfeld,3.3.8,c,500.48199999995995,47,nonword
298,1,C,1,Lentiform Loewenfeld,3.3.8,c,690.8571999999695,47,nonword
299,1,M,2,Lentiform Loewenfeld,3.3.8,m,583.4192000000039,47,word
300,1,M,7,Lentiform Loewenfeld,3.3.8,m,663.2492999999085,47,word
301,1,C,5,Lentiform Loewenfeld,3.3.8,c,464.62229999993,47,nonword
302,1,C,6,Lentiform Loewenfeld,3.3.8,c,593.6668999999529,47,nonword
303,0,M,4,Lentiform Loewenfeld,3.3.8,c,589.3503999999957,47,word
304,1,M,6,Lentiform Loewenfeld,3.3.8,m,660.843200000003,47,word
305,1,M,1,Lentiform Loewenfeld,3.3.8,m,636.8834999999963,47,word
306,1,C,1,Lentiform Loewenfeld,3.3.8,c,529.0509999999776,47,nonword
307,1,C,2,Lentiform Loewenfeld,3.3.8,c,693.7574000000022,47,nonword
308,1,M,5,Lentiform Loewenfeld,3.3.8,m,631.2861000000266,47,word
309,1,C,6,Lentiform Loewenfeld,3.3.8,c,570.7788000002038,47,nonword
310,1,C,4,Lentiform Loewenfeld,3.3.8,c,709.641100000008,47,nonword
311,1,C,1,Lentiform Loewenfeld,3.3.8,c,575.8227999999654,47,nonword
312,1,C,7,Lentiform Loewenfeld,3.3.8,c,557.6956999999238,47,nonword
313,1,M,1,Lentiform Loewenfeld,3.3.8,m,565.8364999999758,47,word
314,1,C,2,Lentiform Loewenfeld,3.3.8,c,509.3780999999726,47,nonword
315,1,M,4,Lentiform Loewenfeld,3.3.8,m,583.560599999968,47,word
316,0,M,3,Lentiform Loewenfeld,3.3.8,c,662.7534999999916,47,word
317,1,M,2,Lentiform Loewenfeld,3.3.8,m,533.2565000000177,47,word
318,1,C,2,Lentiform Loewenfeld,3.3.8,c,559.3345999999437,47,nonword
319,1,C,2,Lentiform Loewenfeld,3.3.8,c,523.5446000000229,47,nonword
320,1,M,1,Lentiform Loewenfeld,3.3.8,m,565.0425999999279,47,word
321,1,M,6,Lentiform Loewenfeld,3.3.8,m,625.793599999859,47,word
322,1,C,4,Lentiform Loewenfeld,3.3.8,c,566.9851999999955,47,nonword
323,1,C,6,Lentiform Loewenfeld,3.3.8,c,657.999599999981,47,nonword
324,1,M,3,Lentiform Loewenfeld,3.3.8,m,513.6969999999274,47,word
325,1,M,3,Lentiform Loewenfeld,3.3.8,m,606.0773000001209,47,word
326,1,C,6,Lentiform Loewenfeld,3.3.8,c,542.4263999999966,47,nonword
327,1,M,3,Lentiform Loewenfeld,3.3.8,m,516.3010999999242,47,word
328,1,C,4,Lentiform Loewenfeld,3.3.8,c,575.168699999922,47,nonword
329,1,M,1,Lentiform Loewenfeld,3.3.8,m,688.8659000000916,47,word
330,0,M,1,Lentiform Loewenfeld,3.3.8,c,589.7687999998452,47,word
331,1,C,4,Lentiform Loewenfeld,3.3.8,c,732.2596000001067,47,nonword
332,1,M,7,Lentiform Loewenfeld,3.3.8,m,647.626200000057,47,word
333,1,M,5,Lentiform Loewenfeld,3.3.8,m,522.3510000000242,47,word
334,1,M,1,Lentiform Loewenfeld,3.3.8,m,739.6791000000667,47,word
335,1,M,5,Lentiform Loewenfeld,3.3.8,m,725.8582999999635,47,word
336,0,C,3,Lentiform Loewenfeld,3.3.8,m,860.1548000000184,47,nonword
337,1,M,5,Lentiform Loewenfeld,3.3.8,m,571.8169999999227,47,word
338,1,C,5,Lentiform Loewenfeld,3.3.8,c,601.3619999999646,47,nonword
339,1,C,4,Lentiform Loewenfeld,3.3.8,c,639.5515000000596,47,nonword
340,1,C,2,Lentiform Loewenfeld,3.3.8,c,675.7745999998879,47,nonword
341,1,C,6,Lentiform Loewenfeld,3.3.8,c,723.0463000000454,47,nonword
342,1,M,2,Lentiform Loewenfeld,3.3.8,m,533.8695000002626,47,word
343,1,M,2,Lentiform Loewenfeld,3.3.8,m,550.1095000000205,47,word
344,1,C,5,Lentiform Loewenfeld,3.3.8,c,615.0198000000091,47,nonword
345,1,C,2,Lentiform Loewenfeld,3.3.8,c,1023.6833999998635,47,nonword
346,1,M,6,Lentiform Loewenfeld,3.3.8,m,528.1717000001809,47,word
347,1,M,1,Lentiform Loewenfeld,3.3.8,m,651.7118999998784,47,word
348,1,M,5,Lentiform Loewenfeld,3.3.8,m,551.9338000001153,47,word
349,1,C,4,Lentiform Loewenfeld,3.3.8,c,625.7778000000399,47,nonword
350,1,C,6,Lentiform Loewenfeld,3.3.8,c,725.9921999999788,47,nonword
351,1,C,6,Lentiform Loewenfeld,3.3.8,c,634.6984999999404,47,nonword
352,0,M,2,Lentiform Loewenfeld,3.3.8,c,574.5049000001745,47,word
353,1,C,2,Lentiform Loewenfeld,3.3.8,c,663.1027000001632,47,nonword
354,1,C,4,Lentiform Loewenfeld,3.3.8,c,734.1098999999231,47,nonword
355,1,M,5,Lentiform Loewenfeld,3.3.8,m,470.27960000000894,47,word
356,1,C,5,Lentiform Loewenfeld,3.3.8,c,567.3240999998525,47,nonword
357,1,M,6,Lentiform Loewenfeld,3.3.8,m,700.5170999999391,47,word
358,1,C,7,Lentiform Loewenfeld,3.3.8,c,594.5736000000034,47,nonword
359,1,C,2,Lentiform Loewenfeld,3.3.8,c,958.6464000000851,47,nonword
360,1,M,2,Lentiform Loewenfeld,3.3.8,m,914.4036000000779,47,word
361,1,M,4,Lentiform Loewenfeld,3.3.8,m,675.3816000000807,47,word
362,1,C,7,Lentiform Loewenfeld,3.3.8,c,659.9155000000028,47,nonword
363,1,M,1,Lentiform Loewenfeld,3.3.8,m,509.95590000017546,47,word
364,1,M,5,Lentiform Loewenfeld,3.3.8,m,617.4904999999562,47,word
365,1,C,3,Lentiform Loewenfeld,3.3.8,c,653.2389999999432,47,nonword
366,1,M,6,Lentiform Loewenfeld,3.3.8,m,764.5651999999536,47,word
367,1,C,2,Lentiform Loewenfeld,3.3.8,c,581.0663999998942,47,nonword
368,0,C,5,Lentiform Loewenfeld,3.3.8,m,481.1324999999488,47,nonword
369,1,C,1,Lentiform Loewenfeld,3.3.8,c,588.4176999998745,47,nonword
370,1,M,7,Lentiform Loewenfeld,3.3.8,m,581.1886999998242,47,word
371,1,C,1,Lentiform Loewenfeld,3.3.8,c,637.2517000000225,47,nonword
372,0,C,2,Lentiform Loewenfeld,3.3.8,m,702.9648000001907,47,nonword
373,1,C,5,Lentiform Loewenfeld,3.3.8,c,770.3186000001151,47,nonword
374,1,C,4,Lentiform Loewenfeld,3.3.8,c,576.1587999999756,47,nonword
375,1,M,6,Lentiform Loewenfeld,3.3.8,m,555.0273999999044,47,word
376,0,M,7,Lentiform Loewenfeld,3.3.8,c,630.7152999999234,47,word
377,1,M,7,Lentiform Loewenfeld,3.3.8,m,691.0182000000495,47,word
378,1,M,1,Lentiform Loewenfeld,3.3.8,m,649.8239000000758,47,word
379,1,C,1,Lentiform Loewenfeld,3.3.8,c,576.5886999999639,47,nonword
380,1,C,5,Lentiform Loewenfeld,3.3.8,c,905.1844000001438,47,nonword
381,1,C,2,Lentiform Loewenfeld,3.3.8,c,638.9564000000246,47,nonword
382,1,M,3,Lentiform Loewenfeld,3.3.8,m,679.0395999997854,47,word
383,1,C,5,Lentiform Loewenfeld,3.3.8,c,555.2571000000462,47,nonword
384,1,M,7,Lentiform Loewenfeld,3.3.8,m,650.7134000000078,47,word
385,1,C,3,Lentiform Loewenfeld,3.3.8,c,614.9385000001639,47,nonword
386,1,C,4,Lentiform Loewenfeld,3.3.8,c,732.9381000001449,47,nonword
387,1,M,4,Lentiform Loewenfeld,3.3.8,m,617.3378999999259,47,word
388,1,M,4,Lentiform Loewenfeld,3.3.8,m,705.382100000279,47,word
389,0,M,7,Lentiform Loewenfeld,3.3.8,c,543.3719999999739,47,word
390,1,M,3,Lentiform Loewenfeld,3.3.8,m,696.8887000000104,47,word
391,1,C,6,Lentiform Loewenfeld,3.3.8,c,593.248399999924,47,nonword
392,1,M,2,Lentiform Loewenfeld,3.3.8,m,547.9324000000488,47,word
393,1,M,3,Lentiform Loewenfeld,3.3.8,m,643.1291000000201,47,word
394,1,M,1,Lentiform Loewenfeld,3.3.8,m,589.2712999999058,47,word
395,1,M,3,Lentiform Loewenfeld,3.3.8,m,760.6818000001367,47,word
396,1,C,5,Lentiform Loewenfeld,3.3.8,c,615.1844999999739,47,nonword
397,1,C,4,Lentiform Loewenfeld,3.3.8,c,848.1972999998834,47,nonword
398,1,C,1,Lentiform Loewenfeld,3.3.8,c,591.5879999999888,47,nonword
399,1,M,7,Lentiform Loewenfeld,3.3.8,m,542.7385999998078,47,word
400,1,C,3,Lentiform Loewenfeld,3.3.8,c,517.158400000073,47,nonword
401,1,M,1,Lentiform Loewenfeld,3.3.8,m,560.6691999998875,47,word
402,1,M,2,Lentiform Loewenfeld,3.3.8,m,614.0354999999981,47,word
403,1,C,1,Lentiform Loewenfeld,3.3.8,c,458.1949999998324,47,nonword
404,1,C,4,Lentiform Loewenfeld,3.3.8,c,525.252500000177,47,nonword
405,1,M,3,Lentiform Loewenfeld,3.3.8,m,569.9957000000868,47,word
406,1,C,5,Lentiform Loewenfeld,3.3.8,c,596.0211000002455,47,nonword
407,1,M,5,Lentiform Loewenfeld,3.3.8,m,562.5470999998506,47,word
408,1,C,4,Lentiform Loewenfeld,3.3.8,c,523.2371000000276,47,nonword
409,1,M,2,Lentiform Loewenfeld,3.3.8,m,417.6345999999903,47,word
410,1,C,3,Lentiform Loewenfeld,3.3.8,c,476.8204000000842,47,nonword
411,1,C,1,Lentiform Loewenfeld,3.3.8,c,573.2249000000302,47,nonword
412,1,M,7,Lentiform Loewenfeld,3.3.8,m,571.5783999997657,47,word
413,0,M,6,Lentiform Loewenfeld,3.3.8,c,506.6178999999538,47,word
414,1,M,1,Lentiform Loewenfeld,3.3.8,m,549.3093000000808,47,word
415,1,M,2,Lentiform Loewenfeld,3.3.8,m,635.2142999996431,47,word
416,1,C,4,Lentiform Loewenfeld,3.3.8,c,529.0986999999732,47,nonword
417,0,C,6,Lentiform Loewenfeld,3.3.8,m,954.4955000001937,47,nonword
418,1,C,6,Lentiform Loewenfeld,3.3.8,c,627.1001999999862,47,nonword
419,1,M,5,Lentiform Loewenfeld,3.3.8,m,633.9898000000976,47,word
