Unnamed: 0,correct_keyboard_response_1,correct_response,flanker_condition,opensesame_codename,opensesame_version,response_keyboard_response_1,response_time_keyboard_response_1,subject_nr,target_type
0,0,C,5,Lentiform Loewenfeld,3.3.8,m,1581.9036000000197,19,nonword
1,1,C,3,Lentiform Loewenfeld,3.3.8,c,631.3934000000008,19,nonword
2,1,C,1,Lentiform Loewenfeld,3.3.8,c,698.8328999999794,19,nonword
3,1,M,3,Lentiform Loewenfeld,3.3.8,m,629.294200000033,19,word
4,1,C,1,Lentiform Loewenfeld,3.3.8,c,597.5259999999835,19,nonword
5,1,C,6,Lentiform Loewenfeld,3.3.8,c,953.3143999999738,19,nonword
6,1,M,1,Lentiform Loewenfeld,3.3.8,m,687.0513999999966,19,word
7,1,M,4,Lentiform Loewenfeld,3.3.8,m,616.7913000000117,19,word
8,1,M,7,Lentiform Loewenfeld,3.3.8,m,576.3763999999792,19,word
9,1,M,4,Lentiform Loewenfeld,3.3.8,m,446.06460000001243,19,word
10,1,C,2,Lentiform Loewenfeld,3.3.8,c,524.940900000016,19,nonword
11,1,C,7,Lentiform Loewenfeld,3.3.8,c,685.5278000000108,19,nonword
12,1,M,7,Lentiform Loewenfeld,3.3.8,m,716.1000000000058,19,word
13,1,M,2,Lentiform Loewenfeld,3.3.8,m,802.3556999999855,19,word
14,0,C,6,Lentiform Loewenfeld,3.3.8,m,522.2869000000064,19,nonword
15,1,C,5,Lentiform Loewenfeld,3.3.8,c,704.7066999999806,19,nonword
16,0,M,6,Lentiform Loewenfeld,3.3.8,c,857.1330000000016,19,word
17,1,C,7,Lentiform Loewenfeld,3.3.8,c,524.3659000000043,19,nonword
18,1,C,2,Lentiform Loewenfeld,3.3.8,c,1188.9617000000144,19,nonword
19,1,M,7,Lentiform Loewenfeld,3.3.8,m,782.3746000000101,19,word
20,1,M,6,Lentiform Loewenfeld,3.3.8,m,814.910600000032,19,word
21,1,C,4,Lentiform Loewenfeld,3.3.8,c,669.6968999999808,19,nonword
22,1,M,6,Lentiform Loewenfeld,3.3.8,m,667.4014000000607,19,word
23,1,M,3,Lentiform Loewenfeld,3.3.8,m,677.5776999999944,19,word
24,1,C,1,Lentiform Loewenfeld,3.3.8,c,568.1956000000064,19,nonword
25,1,M,1,Lentiform Loewenfeld,3.3.8,m,669.9590999999782,19,word
26,0,M,2,Lentiform Loewenfeld,3.3.8,c,613.7637000000104,19,word
27,1,M,6,Lentiform Loewenfeld,3.3.8,m,589.0237000000197,19,word
28,1,M,6,Lentiform Loewenfeld,3.3.8,m,685.9520000000193,19,word
29,0,C,7,Lentiform Loewenfeld,3.3.8,m,582.7648999999801,19,nonword
30,1,M,6,Lentiform Loewenfeld,3.3.8,m,621.3403000000108,19,word
31,1,C,5,Lentiform Loewenfeld,3.3.8,c,642.0362000000314,19,nonword
32,1,M,6,Lentiform Loewenfeld,3.3.8,m,689.7281000000075,19,word
33,1,C,3,Lentiform Loewenfeld,3.3.8,c,587.6503999999841,19,nonword
34,1,C,5,Lentiform Loewenfeld,3.3.8,c,748.6019999999844,19,nonword
35,1,M,2,Lentiform Loewenfeld,3.3.8,m,696.5159999999742,19,word
36,1,C,4,Lentiform Loewenfeld,3.3.8,c,585.0964000000095,19,nonword
37,1,C,6,Lentiform Loewenfeld,3.3.8,c,737.7090000000317,19,nonword
38,1,M,6,Lentiform Loewenfeld,3.3.8,m,591.6982000000135,19,word
39,1,C,6,Lentiform Loewenfeld,3.3.8,c,520.9326000000001,19,nonword
40,1,C,2,Lentiform Loewenfeld,3.3.8,c,617.0512000000163,19,nonword
41,1,C,2,Lentiform Loewenfeld,3.3.8,c,555.1291000000201,19,nonword
42,1,C,7,Lentiform Loewenfeld,3.3.8,c,519.2716999999539,19,nonword
43,1,M,1,Lentiform Loewenfeld,3.3.8,m,669.824799999973,19,word
44,0,M,7,Lentiform Loewenfeld,3.3.8,c,572.6393999999855,19,word
45,0,M,4,Lentiform Loewenfeld,3.3.8,c,883.5243999999948,19,word
46,1,C,5,Lentiform Loewenfeld,3.3.8,c,672.9426000000094,19,nonword
47,1,C,7,Lentiform Loewenfeld,3.3.8,c,608.3397999999579,19,nonword
48,1,C,6,Lentiform Loewenfeld,3.3.8,c,589.4109000000462,19,nonword
49,1,M,5,Lentiform Loewenfeld,3.3.8,m,617.6886999999988,19,word
50,1,C,5,Lentiform Loewenfeld,3.3.8,c,710.0069999999832,19,nonword
51,1,C,6,Lentiform Loewenfeld,3.3.8,c,763.5350999999791,19,nonword
52,1,M,7,Lentiform Loewenfeld,3.3.8,m,788.6181000000506,19,word
53,1,C,7,Lentiform Loewenfeld,3.3.8,c,510.22890000004554,19,nonword
54,1,M,3,Lentiform Loewenfeld,3.3.8,m,732.339799999987,19,word
55,1,C,2,Lentiform Loewenfeld,3.3.8,c,640.4463999999862,19,nonword
56,1,C,1,Lentiform Loewenfeld,3.3.8,c,653.0217000000121,19,nonword
57,1,M,2,Lentiform Loewenfeld,3.3.8,m,644.3126000000047,19,word
58,1,M,6,Lentiform Loewenfeld,3.3.8,m,875.2068999999901,19,word
59,1,M,2,Lentiform Loewenfeld,3.3.8,m,679.9502000000211,19,word
60,1,M,5,Lentiform Loewenfeld,3.3.8,m,520.394100000005,19,word
61,1,C,3,Lentiform Loewenfeld,3.3.8,c,677.0315999999875,19,nonword
62,1,C,2,Lentiform Loewenfeld,3.3.8,c,634.954700000002,19,nonword
63,1,M,1,Lentiform Loewenfeld,3.3.8,m,629.9444000000367,19,word
64,1,M,1,Lentiform Loewenfeld,3.3.8,m,565.6455999999889,19,word
65,1,M,1,Lentiform Loewenfeld,3.3.8,m,549.4157999999588,19,word
66,1,M,2,Lentiform Loewenfeld,3.3.8,m,462.35210000001825,19,word
67,1,C,3,Lentiform Loewenfeld,3.3.8,c,897.4585000000079,19,nonword
68,1,M,1,Lentiform Loewenfeld,3.3.8,m,541.0003000000142,19,word
69,1,M,4,Lentiform Loewenfeld,3.3.8,m,542.6500000000233,19,word
70,1,C,4,Lentiform Loewenfeld,3.3.8,c,665.266900000046,19,nonword
71,1,M,4,Lentiform Loewenfeld,3.3.8,m,702.1584000000148,19,word
72,1,C,5,Lentiform Loewenfeld,3.3.8,c,673.5807999999961,19,nonword
73,1,M,3,Lentiform Loewenfeld,3.3.8,m,539.3101000000024,19,word
74,1,M,2,Lentiform Loewenfeld,3.3.8,m,546.5964999999851,19,word
75,1,C,3,Lentiform Loewenfeld,3.3.8,c,594.4169999999576,19,nonword
76,1,M,3,Lentiform Loewenfeld,3.3.8,m,637.8388999999734,19,word
77,1,C,2,Lentiform Loewenfeld,3.3.8,c,569.5756999999867,19,nonword
78,1,C,7,Lentiform Loewenfeld,3.3.8,c,590.7092999999877,19,nonword
79,1,M,5,Lentiform Loewenfeld,3.3.8,m,497.4472999999998,19,word
80,1,C,2,Lentiform Loewenfeld,3.3.8,c,600.892200000002,19,nonword
81,0,C,3,Lentiform Loewenfeld,3.3.8,m,575.5093999999808,19,nonword
82,1,C,6,Lentiform Loewenfeld,3.3.8,c,655.4156000000075,19,nonword
83,1,M,3,Lentiform Loewenfeld,3.3.8,m,839.7944000000134,19,word
84,1,M,6,Lentiform Loewenfeld,3.3.8,m,554.2602000000188,19,word
85,1,M,4,Lentiform Loewenfeld,3.3.8,m,632.3455999999424,19,word
86,1,M,7,Lentiform Loewenfeld,3.3.8,m,535.2829000000493,19,word
87,1,C,2,Lentiform Loewenfeld,3.3.8,c,650.9099999999744,19,nonword
88,1,C,1,Lentiform Loewenfeld,3.3.8,c,736.3165000000154,19,nonword
89,1,M,2,Lentiform Loewenfeld,3.3.8,m,730.0673999999999,19,word
90,1,C,4,Lentiform Loewenfeld,3.3.8,c,582.6674000000348,19,nonword
91,1,C,7,Lentiform Loewenfeld,3.3.8,c,628.9025000000256,19,nonword
92,1,M,4,Lentiform Loewenfeld,3.3.8,m,653.1833000000333,19,word
93,0,M,1,Lentiform Loewenfeld,3.3.8,c,517.297099999967,19,word
94,0,M,4,Lentiform Loewenfeld,3.3.8,c,785.5458000000217,19,word
95,1,C,5,Lentiform Loewenfeld,3.3.8,c,1019.9980000000214,19,nonword
96,1,C,1,Lentiform Loewenfeld,3.3.8,c,763.8689000000013,19,nonword
97,1,C,5,Lentiform Loewenfeld,3.3.8,c,560.0858000000007,19,nonword
98,1,C,1,Lentiform Loewenfeld,3.3.8,c,643.5766000000294,19,nonword
99,1,M,1,Lentiform Loewenfeld,3.3.8,m,578.6371000000509,19,word
100,1,M,3,Lentiform Loewenfeld,3.3.8,m,525.4221999999718,19,word
101,1,M,2,Lentiform Loewenfeld,3.3.8,m,542.6688999999897,19,word
102,1,M,4,Lentiform Loewenfeld,3.3.8,m,488.77310000004945,19,word
103,1,C,6,Lentiform Loewenfeld,3.3.8,c,624.6950999999535,19,nonword
104,1,M,4,Lentiform Loewenfeld,3.3.8,m,591.8128000000725,19,word
105,1,M,5,Lentiform Loewenfeld,3.3.8,m,582.0681000000332,19,word
106,1,M,2,Lentiform Loewenfeld,3.3.8,m,680.5238000000245,19,word
107,1,C,5,Lentiform Loewenfeld,3.3.8,c,647.7706000000471,19,nonword
108,1,M,4,Lentiform Loewenfeld,3.3.8,m,462.66010000003735,19,word
109,1,C,2,Lentiform Loewenfeld,3.3.8,c,611.1872999999905,19,nonword
110,1,M,2,Lentiform Loewenfeld,3.3.8,m,539.8949999999604,19,word
111,1,C,2,Lentiform Loewenfeld,3.3.8,c,520.1663999999873,19,nonword
112,1,C,1,Lentiform Loewenfeld,3.3.8,c,558.9324999999953,19,nonword
113,1,M,3,Lentiform Loewenfeld,3.3.8,m,599.2319000000134,19,word
114,1,M,4,Lentiform Loewenfeld,3.3.8,m,591.8080000000773,19,word
115,1,C,4,Lentiform Loewenfeld,3.3.8,c,577.5562999999966,19,nonword
116,1,C,2,Lentiform Loewenfeld,3.3.8,c,757.4835000000312,19,nonword
117,1,C,5,Lentiform Loewenfeld,3.3.8,c,655.7590999999666,19,nonword
118,0,M,6,Lentiform Loewenfeld,3.3.8,c,1449.3012000000454,19,word
119,1,C,3,Lentiform Loewenfeld,3.3.8,c,677.1614999999874,19,nonword
120,1,C,1,Lentiform Loewenfeld,3.3.8,c,671.5622999999905,19,nonword
121,1,C,3,Lentiform Loewenfeld,3.3.8,c,578.8969999999972,19,nonword
122,1,C,4,Lentiform Loewenfeld,3.3.8,c,531.4703000000445,19,nonword
123,0,M,7,Lentiform Loewenfeld,3.3.8,c,384.5597999999882,19,word
124,1,C,5,Lentiform Loewenfeld,3.3.8,c,674.8477000000421,19,nonword
125,1,M,5,Lentiform Loewenfeld,3.3.8,m,435.4340000000084,19,word
126,1,C,6,Lentiform Loewenfeld,3.3.8,c,606.7400999999954,19,nonword
127,1,M,4,Lentiform Loewenfeld,3.3.8,m,803.153699999908,19,word
128,1,M,3,Lentiform Loewenfeld,3.3.8,m,575.7208999999566,19,word
129,1,C,6,Lentiform Loewenfeld,3.3.8,c,592.0056999999797,19,nonword
130,1,M,1,Lentiform Loewenfeld,3.3.8,m,587.1184999999823,19,word
131,1,M,6,Lentiform Loewenfeld,3.3.8,m,518.5154999999795,19,word
132,1,M,4,Lentiform Loewenfeld,3.3.8,m,505.82419999997364,19,word
133,1,C,1,Lentiform Loewenfeld,3.3.8,c,548.4380999999703,19,nonword
134,1,M,1,Lentiform Loewenfeld,3.3.8,m,537.0321000000113,19,word
135,1,M,1,Lentiform Loewenfeld,3.3.8,m,461.5065000000177,19,word
136,1,M,5,Lentiform Loewenfeld,3.3.8,m,412.4467000000295,19,word
137,1,M,6,Lentiform Loewenfeld,3.3.8,m,445.2588000000105,19,word
138,0,C,6,Lentiform Loewenfeld,3.3.8,m,408.8520000000135,19,nonword
139,0,C,1,Lentiform Loewenfeld,3.3.8,m,509.5962999999756,19,nonword
140,1,M,3,Lentiform Loewenfeld,3.3.8,m,423.88669999997364,19,word
141,0,C,5,Lentiform Loewenfeld,3.3.8,m,456.67679999995744,19,nonword
142,1,C,6,Lentiform Loewenfeld,3.3.8,c,515.2498999999953,19,nonword
143,0,C,2,Lentiform Loewenfeld,3.3.8,m,480.29899999999907,19,nonword
144,1,C,6,Lentiform Loewenfeld,3.3.8,c,885.500699999975,19,nonword
145,1,M,4,Lentiform Loewenfeld,3.3.8,m,580.2896000000183,19,word
146,1,M,7,Lentiform Loewenfeld,3.3.8,m,819.2270000000135,19,word
147,1,M,6,Lentiform Loewenfeld,3.3.8,m,542.5840000000317,19,word
148,1,C,4,Lentiform Loewenfeld,3.3.8,c,639.5829000000376,19,nonword
149,1,C,7,Lentiform Loewenfeld,3.3.8,c,776.3304999999818,19,nonword
150,0,C,3,Lentiform Loewenfeld,3.3.8,m,648.9285999999847,19,nonword
151,1,C,7,Lentiform Loewenfeld,3.3.8,c,653.6536000000197,19,nonword
152,1,M,7,Lentiform Loewenfeld,3.3.8,m,593.93120000005,19,word
153,1,C,3,Lentiform Loewenfeld,3.3.8,c,710.5235999998986,19,nonword
154,1,C,2,Lentiform Loewenfeld,3.3.8,c,581.946600000083,19,nonword
155,1,C,7,Lentiform Loewenfeld,3.3.8,c,622.6806000000215,19,nonword
156,1,C,5,Lentiform Loewenfeld,3.3.8,c,840.16189999989,19,nonword
157,0,M,6,Lentiform Loewenfeld,3.3.8,c,565.5475999999326,19,word
158,1,M,3,Lentiform Loewenfeld,3.3.8,m,819.0164999999688,19,word
159,1,C,3,Lentiform Loewenfeld,3.3.8,c,1026.549699999916,19,nonword
160,1,C,1,Lentiform Loewenfeld,3.3.8,c,599.94379999995,19,nonword
161,1,M,5,Lentiform Loewenfeld,3.3.8,m,522.7016000000294,19,word
162,1,C,2,Lentiform Loewenfeld,3.3.8,c,441.8027000000584,19,nonword
163,1,M,4,Lentiform Loewenfeld,3.3.8,m,567.2357000000193,19,word
164,1,M,5,Lentiform Loewenfeld,3.3.8,m,614.038899999985,19,word
165,1,M,7,Lentiform Loewenfeld,3.3.8,m,560.2742999999318,19,word
166,1,C,4,Lentiform Loewenfeld,3.3.8,c,552.5522000000346,19,nonword
167,1,C,4,Lentiform Loewenfeld,3.3.8,c,630.3175000000629,19,nonword
168,1,C,5,Lentiform Loewenfeld,3.3.8,c,562.4566000000923,19,nonword
169,1,C,1,Lentiform Loewenfeld,3.3.8,c,583.8467999999993,19,nonword
170,0,M,6,Lentiform Loewenfeld,3.3.8,c,1108.953300000052,19,word
171,1,M,1,Lentiform Loewenfeld,3.3.8,m,592.622599999886,19,word
172,1,M,7,Lentiform Loewenfeld,3.3.8,m,665.2567999999737,19,word
173,1,M,7,Lentiform Loewenfeld,3.3.8,m,471.8474999999744,19,word
174,1,C,1,Lentiform Loewenfeld,3.3.8,c,632.955100000021,19,nonword
175,1,C,3,Lentiform Loewenfeld,3.3.8,c,605.5589999999502,19,nonword
176,1,C,1,Lentiform Loewenfeld,3.3.8,c,571.9878999999491,19,nonword
177,1,C,4,Lentiform Loewenfeld,3.3.8,c,610.9138000000385,19,nonword
178,1,M,1,Lentiform Loewenfeld,3.3.8,m,595.9973000000464,19,word
179,1,M,7,Lentiform Loewenfeld,3.3.8,m,552.4633000000031,19,word
180,1,M,7,Lentiform Loewenfeld,3.3.8,m,515.7675000000163,19,word
181,0,C,4,Lentiform Loewenfeld,3.3.8,m,445.34479999996256,19,nonword
182,1,M,6,Lentiform Loewenfeld,3.3.8,m,567.4492000000901,19,word
183,1,C,4,Lentiform Loewenfeld,3.3.8,c,621.3960000000079,19,nonword
184,1,M,2,Lentiform Loewenfeld,3.3.8,m,554.4558000000543,19,word
185,1,C,2,Lentiform Loewenfeld,3.3.8,c,556.4202999998815,19,nonword
186,1,M,4,Lentiform Loewenfeld,3.3.8,m,592.5193999999901,19,word
187,1,C,6,Lentiform Loewenfeld,3.3.8,c,519.2724000000162,19,nonword
188,1,C,2,Lentiform Loewenfeld,3.3.8,c,525.2643999999855,19,nonword
189,0,M,7,Lentiform Loewenfeld,3.3.8,c,948.9971000000369,19,word
190,1,M,6,Lentiform Loewenfeld,3.3.8,m,552.3625000001048,19,word
191,1,M,6,Lentiform Loewenfeld,3.3.8,m,527.9710000000196,19,word
192,1,C,3,Lentiform Loewenfeld,3.3.8,c,941.420599999954,19,nonword
193,1,C,2,Lentiform Loewenfeld,3.3.8,c,587.6137999999337,19,nonword
194,1,M,7,Lentiform Loewenfeld,3.3.8,m,762.0763000000734,19,word
195,1,C,3,Lentiform Loewenfeld,3.3.8,c,904.6341999999713,19,nonword
196,1,M,6,Lentiform Loewenfeld,3.3.8,m,614.8839999999618,19,word
197,1,M,6,Lentiform Loewenfeld,3.3.8,m,654.1766999999527,19,word
198,1,C,4,Lentiform Loewenfeld,3.3.8,c,693.4527000000235,19,nonword
199,1,M,3,Lentiform Loewenfeld,3.3.8,m,693.8882999999914,19,word
200,1,C,3,Lentiform Loewenfeld,3.3.8,c,553.1600000000326,19,nonword
201,1,C,3,Lentiform Loewenfeld,3.3.8,c,712.2429000000702,19,nonword
202,1,C,3,Lentiform Loewenfeld,3.3.8,c,612.6772999999812,19,nonword
203,1,M,3,Lentiform Loewenfeld,3.3.8,m,641.3374000000767,19,word
204,1,C,5,Lentiform Loewenfeld,3.3.8,c,595.8183999999892,19,nonword
205,1,M,2,Lentiform Loewenfeld,3.3.8,m,692.7961999999825,19,word
206,0,M,4,Lentiform Loewenfeld,3.3.8,c,748.5396000000183,19,word
207,1,C,2,Lentiform Loewenfeld,3.3.8,c,732.5889999999199,19,nonword
208,1,C,7,Lentiform Loewenfeld,3.3.8,c,627.0170999999391,19,nonword
209,1,C,4,Lentiform Loewenfeld,3.3.8,c,492.7809000000125,19,nonword
210,1,C,5,Lentiform Loewenfeld,3.3.8,c,945.7267999999458,19,nonword
211,0,M,7,Lentiform Loewenfeld,3.3.8,c,562.1334999999963,19,word
212,1,C,4,Lentiform Loewenfeld,3.3.8,c,682.0567999999039,19,nonword
213,1,C,4,Lentiform Loewenfeld,3.3.8,c,587.3260000000009,19,nonword
214,1,M,5,Lentiform Loewenfeld,3.3.8,m,695.1506999999983,19,word
215,1,C,7,Lentiform Loewenfeld,3.3.8,c,596.9934000000358,19,nonword
216,1,M,2,Lentiform Loewenfeld,3.3.8,m,656.5910000000149,19,word
217,1,M,4,Lentiform Loewenfeld,3.3.8,m,542.4091999999946,19,word
218,1,C,3,Lentiform Loewenfeld,3.3.8,c,504.9854999999516,19,nonword
219,1,M,4,Lentiform Loewenfeld,3.3.8,m,539.5700000000652,19,word
220,1,C,3,Lentiform Loewenfeld,3.3.8,c,496.3274000000674,19,nonword
221,1,M,3,Lentiform Loewenfeld,3.3.8,m,749.9623000000138,19,word
222,1,C,7,Lentiform Loewenfeld,3.3.8,c,473.0458000000799,19,nonword
223,1,M,6,Lentiform Loewenfeld,3.3.8,m,530.168299999903,19,word
224,1,M,1,Lentiform Loewenfeld,3.3.8,m,493.58869999984745,19,word
225,1,M,2,Lentiform Loewenfeld,3.3.8,m,608.839999999851,19,word
226,1,C,3,Lentiform Loewenfeld,3.3.8,c,700.6421999998856,19,nonword
227,1,M,3,Lentiform Loewenfeld,3.3.8,m,536.2375999999931,19,word
228,1,M,3,Lentiform Loewenfeld,3.3.8,m,659.1693000000669,19,word
229,1,M,7,Lentiform Loewenfeld,3.3.8,m,405.2345000000205,19,word
230,1,M,1,Lentiform Loewenfeld,3.3.8,m,529.062799999956,19,word
231,0,C,6,Lentiform Loewenfeld,3.3.8,m,390.3131000001449,19,nonword
232,1,M,4,Lentiform Loewenfeld,3.3.8,m,500.9486000000033,19,word
233,1,M,2,Lentiform Loewenfeld,3.3.8,m,520.8758999999845,19,word
234,0,M,3,Lentiform Loewenfeld,3.3.8,c,864.7541000000201,19,word
235,1,M,2,Lentiform Loewenfeld,3.3.8,m,601.0639999998966,19,word
236,1,C,3,Lentiform Loewenfeld,3.3.8,c,634.5230000000447,19,nonword
237,1,M,5,Lentiform Loewenfeld,3.3.8,m,524.4353999999585,19,word
238,1,C,6,Lentiform Loewenfeld,3.3.8,c,626.2274999999208,19,nonword
239,1,M,6,Lentiform Loewenfeld,3.3.8,m,706.9588000000222,19,word
240,1,M,3,Lentiform Loewenfeld,3.3.8,m,518.3179999999702,19,word
241,1,C,4,Lentiform Loewenfeld,3.3.8,c,577.6754000000656,19,nonword
242,1,M,3,Lentiform Loewenfeld,3.3.8,m,403.4259000000311,19,word
243,1,M,7,Lentiform Loewenfeld,3.3.8,m,551.7530000000261,19,word
244,1,C,7,Lentiform Loewenfeld,3.3.8,c,567.4141999998828,19,nonword
245,1,M,1,Lentiform Loewenfeld,3.3.8,m,650.7872999999672,19,word
246,1,C,1,Lentiform Loewenfeld,3.3.8,c,620.2005999999819,19,nonword
247,1,M,5,Lentiform Loewenfeld,3.3.8,m,563.6213000001153,19,word
248,1,M,3,Lentiform Loewenfeld,3.3.8,m,490.38829999999143,19,word
249,1,C,2,Lentiform Loewenfeld,3.3.8,c,627.6939999999013,19,nonword
250,1,M,2,Lentiform Loewenfeld,3.3.8,m,531.3048000000417,19,word
251,1,M,2,Lentiform Loewenfeld,3.3.8,m,584.5652999999002,19,word
252,1,C,6,Lentiform Loewenfeld,3.3.8,c,621.1540000000969,19,nonword
253,1,C,6,Lentiform Loewenfeld,3.3.8,c,615.2683999999426,19,nonword
254,1,C,1,Lentiform Loewenfeld,3.3.8,c,585.0396999999648,19,nonword
255,0,C,5,Lentiform Loewenfeld,3.3.8,m,693.3102000000654,19,nonword
256,1,M,1,Lentiform Loewenfeld,3.3.8,m,821.2117999999318,19,word
257,1,M,7,Lentiform Loewenfeld,3.3.8,m,696.1306000001496,19,word
258,1,C,6,Lentiform Loewenfeld,3.3.8,c,485.86959999997634,19,nonword
259,1,M,1,Lentiform Loewenfeld,3.3.8,m,526.3968000001041,19,word
260,1,M,7,Lentiform Loewenfeld,3.3.8,m,531.6205999999074,19,word
261,1,M,4,Lentiform Loewenfeld,3.3.8,m,580.9631999999983,19,word
262,1,C,7,Lentiform Loewenfeld,3.3.8,c,615.6257000000915,19,nonword
263,1,M,3,Lentiform Loewenfeld,3.3.8,m,653.6106999999611,19,word
264,1,C,7,Lentiform Loewenfeld,3.3.8,c,664.0102000000188,19,nonword
265,1,C,3,Lentiform Loewenfeld,3.3.8,c,686.0994000000646,19,nonword
266,1,M,6,Lentiform Loewenfeld,3.3.8,m,613.1818999999668,19,word
267,1,C,2,Lentiform Loewenfeld,3.3.8,c,570.4506999999285,19,nonword
268,1,C,5,Lentiform Loewenfeld,3.3.8,c,936.7833999999566,19,nonword
269,1,C,6,Lentiform Loewenfeld,3.3.8,c,581.623799999943,19,nonword
270,1,M,5,Lentiform Loewenfeld,3.3.8,m,594.0289999999804,19,word
271,1,C,6,Lentiform Loewenfeld,3.3.8,c,1061.8496999999043,19,nonword
272,1,M,4,Lentiform Loewenfeld,3.3.8,m,591.2376000001095,19,word
273,1,C,4,Lentiform Loewenfeld,3.3.8,c,769.2931000001263,19,nonword
274,1,C,3,Lentiform Loewenfeld,3.3.8,c,575.8956999999937,19,nonword
275,1,M,5,Lentiform Loewenfeld,3.3.8,m,563.9732000000076,19,word
276,1,C,4,Lentiform Loewenfeld,3.3.8,c,679.9148999999743,19,nonword
277,1,M,7,Lentiform Loewenfeld,3.3.8,m,638.8246999999974,19,word
278,0,C,6,Lentiform Loewenfeld,3.3.8,m,655.2892999999458,19,nonword
279,1,M,7,Lentiform Loewenfeld,3.3.8,m,517.9006000000518,19,word
280,1,M,7,Lentiform Loewenfeld,3.3.8,m,1213.313000000082,19,word
281,1,C,4,Lentiform Loewenfeld,3.3.8,c,984.4966999999015,19,nonword
282,1,M,6,Lentiform Loewenfeld,3.3.8,m,562.4621999999508,19,word
283,1,C,1,Lentiform Loewenfeld,3.3.8,c,639.8875999999,19,nonword
284,1,C,7,Lentiform Loewenfeld,3.3.8,c,767.1086999999825,19,nonword
285,1,M,6,Lentiform Loewenfeld,3.3.8,m,566.3506999999518,19,word
286,1,M,1,Lentiform Loewenfeld,3.3.8,m,564.7703999999212,19,word
287,1,M,2,Lentiform Loewenfeld,3.3.8,m,895.049500000081,19,word
288,1,M,5,Lentiform Loewenfeld,3.3.8,m,522.2874999999767,19,word
289,1,C,2,Lentiform Loewenfeld,3.3.8,c,928.2086999998428,19,nonword
290,1,C,3,Lentiform Loewenfeld,3.3.8,c,703.6620999999577,19,nonword
291,1,M,6,Lentiform Loewenfeld,3.3.8,m,579.7364999998827,19,word
292,1,M,2,Lentiform Loewenfeld,3.3.8,m,668.5034000000451,19,word
293,1,C,2,Lentiform Loewenfeld,3.3.8,c,705.2393000000156,19,nonword
294,1,C,1,Lentiform Loewenfeld,3.3.8,c,634.3391000000993,19,nonword
295,1,M,3,Lentiform Loewenfeld,3.3.8,m,666.2550999999512,19,word
296,1,C,7,Lentiform Loewenfeld,3.3.8,c,716.1736999999266,19,nonword
297,1,M,4,Lentiform Loewenfeld,3.3.8,m,544.8190999999642,19,word
298,1,C,3,Lentiform Loewenfeld,3.3.8,c,703.0731999999844,19,nonword
299,0,C,6,Lentiform Loewenfeld,3.3.8,m,678.6526000000304,19,nonword
300,1,M,5,Lentiform Loewenfeld,3.3.8,m,638.7769000000553,19,word
301,1,M,3,Lentiform Loewenfeld,3.3.8,m,612.109599999967,19,word
302,1,C,5,Lentiform Loewenfeld,3.3.8,c,651.6120999999112,19,nonword
303,1,C,1,Lentiform Loewenfeld,3.3.8,c,612.0358000000706,19,nonword
304,1,M,2,Lentiform Loewenfeld,3.3.8,m,647.4505999999819,19,word
305,1,M,2,Lentiform Loewenfeld,3.3.8,m,586.8796000001021,19,word
306,1,C,5,Lentiform Loewenfeld,3.3.8,c,531.8029999999562,19,nonword
307,1,M,1,Lentiform Loewenfeld,3.3.8,m,605.8159000000451,19,word
308,1,M,4,Lentiform Loewenfeld,3.3.8,m,758.0217999999877,19,word
309,1,C,1,Lentiform Loewenfeld,3.3.8,c,830.5763000000734,19,nonword
310,1,M,3,Lentiform Loewenfeld,3.3.8,m,562.157200000016,19,word
311,1,C,3,Lentiform Loewenfeld,3.3.8,c,577.1022000000812,19,nonword
312,1,M,1,Lentiform Loewenfeld,3.3.8,m,626.2052999999141,19,word
313,1,C,2,Lentiform Loewenfeld,3.3.8,c,781.6402000000235,19,nonword
314,1,C,5,Lentiform Loewenfeld,3.3.8,c,604.3926999999676,19,nonword
315,1,M,7,Lentiform Loewenfeld,3.3.8,m,623.8083000000333,19,word
316,1,M,7,Lentiform Loewenfeld,3.3.8,m,727.0982999999542,19,word
317,0,M,7,Lentiform Loewenfeld,3.3.8,c,686.6935000000522,19,word
318,1,C,6,Lentiform Loewenfeld,3.3.8,c,614.9153999999398,19,nonword
319,1,M,2,Lentiform Loewenfeld,3.3.8,m,605.7052999999141,19,word
320,1,M,6,Lentiform Loewenfeld,3.3.8,m,569.2691000000341,19,word
321,1,M,5,Lentiform Loewenfeld,3.3.8,m,413.1013999999268,19,word
322,0,C,4,Lentiform Loewenfeld,3.3.8,m,407.70690000010654,19,nonword
323,1,M,5,Lentiform Loewenfeld,3.3.8,m,561.8078000000678,19,word
324,1,M,2,Lentiform Loewenfeld,3.3.8,m,824.4144000000088,19,word
325,1,C,4,Lentiform Loewenfeld,3.3.8,c,608.0217999999877,19,nonword
326,1,C,7,Lentiform Loewenfeld,3.3.8,c,597.4258000000846,19,nonword
327,1,M,2,Lentiform Loewenfeld,3.3.8,m,826.188199999975,19,word
328,1,C,7,Lentiform Loewenfeld,3.3.8,c,626.4501999999629,19,nonword
329,1,M,6,Lentiform Loewenfeld,3.3.8,m,567.8706999999704,19,word
330,1,C,4,Lentiform Loewenfeld,3.3.8,c,748.3364000000292,19,nonword
331,1,C,2,Lentiform Loewenfeld,3.3.8,c,646.9009999999544,19,nonword
332,1,M,3,Lentiform Loewenfeld,3.3.8,m,685.5396000000183,19,word
333,1,M,4,Lentiform Loewenfeld,3.3.8,m,549.9115000000456,19,word
334,1,C,7,Lentiform Loewenfeld,3.3.8,c,783.5356999998912,19,nonword
335,1,M,5,Lentiform Loewenfeld,3.3.8,m,523.3006000000751,19,word
336,1,M,1,Lentiform Loewenfeld,3.3.8,m,521.4143000000622,19,word
337,1,C,7,Lentiform Loewenfeld,3.3.8,c,792.2142999999924,19,nonword
338,1,M,1,Lentiform Loewenfeld,3.3.8,m,524.2634000000544,19,word
339,1,C,1,Lentiform Loewenfeld,3.3.8,c,570.7240999998758,19,nonword
340,1,C,1,Lentiform Loewenfeld,3.3.8,c,577.6343999999808,19,nonword
341,1,C,4,Lentiform Loewenfeld,3.3.8,c,637.2916999999434,19,nonword
342,1,M,5,Lentiform Loewenfeld,3.3.8,m,518.3071999999229,19,word
343,1,C,2,Lentiform Loewenfeld,3.3.8,c,581.4170000000158,19,nonword
344,1,C,6,Lentiform Loewenfeld,3.3.8,c,619.5042000000831,19,nonword
345,1,M,1,Lentiform Loewenfeld,3.3.8,m,601.2590000000782,19,word
346,1,C,2,Lentiform Loewenfeld,3.3.8,c,503.0355999999447,19,nonword
347,1,C,7,Lentiform Loewenfeld,3.3.8,c,721.1270999999251,19,nonword
348,1,M,3,Lentiform Loewenfeld,3.3.8,m,747.5724000000628,19,word
349,1,M,5,Lentiform Loewenfeld,3.3.8,m,511.7911999999778,19,word
350,1,C,7,Lentiform Loewenfeld,3.3.8,c,1467.390699999989,19,nonword
351,1,C,7,Lentiform Loewenfeld,3.3.8,c,714.7357000000775,19,nonword
352,1,M,4,Lentiform Loewenfeld,3.3.8,m,523.1622000000207,19,word
353,1,M,7,Lentiform Loewenfeld,3.3.8,m,465.9172999999719,19,word
354,1,C,1,Lentiform Loewenfeld,3.3.8,c,685.2086000000127,19,nonword
355,1,M,5,Lentiform Loewenfeld,3.3.8,m,585.4708999998402,19,word
356,1,C,4,Lentiform Loewenfeld,3.3.8,c,496.2414000000572,19,nonword
357,1,C,1,Lentiform Loewenfeld,3.3.8,c,551.5136000000639,19,nonword
358,1,M,4,Lentiform Loewenfeld,3.3.8,m,466.2970000001369,19,word
359,1,C,4,Lentiform Loewenfeld,3.3.8,c,529.7698999999557,19,nonword
360,0,C,5,Lentiform Loewenfeld,3.3.8,m,551.6926000000676,19,nonword
361,1,C,6,Lentiform Loewenfeld,3.3.8,c,599.6252000000095,19,nonword
362,1,M,1,Lentiform Loewenfeld,3.3.8,m,552.8793000000296,19,word
363,1,M,2,Lentiform Loewenfeld,3.3.8,m,568.6480000000447,19,word
364,1,C,4,Lentiform Loewenfeld,3.3.8,c,649.2330000000075,19,nonword
365,1,C,5,Lentiform Loewenfeld,3.3.8,c,601.1380999999819,19,nonword
366,1,C,3,Lentiform Loewenfeld,3.3.8,c,451.2826999999816,19,nonword
367,0,M,5,Lentiform Loewenfeld,3.3.8,c,570.2627999999095,19,word
368,1,C,1,Lentiform Loewenfeld,3.3.8,c,819.1659000000218,19,nonword
369,1,C,6,Lentiform Loewenfeld,3.3.8,c,568.8984000000637,19,nonword
370,1,C,5,Lentiform Loewenfeld,3.3.8,c,520.5299000000814,19,nonword
371,1,C,5,Lentiform Loewenfeld,3.3.8,c,713.7730000001611,19,nonword
372,1,M,6,Lentiform Loewenfeld,3.3.8,m,666.3479999999981,19,word
373,1,M,4,Lentiform Loewenfeld,3.3.8,m,739.4442999999737,19,word
374,1,M,5,Lentiform Loewenfeld,3.3.8,m,528.5365000000456,19,word
375,1,C,4,Lentiform Loewenfeld,3.3.8,c,689.487000000081,19,nonword
376,1,C,3,Lentiform Loewenfeld,3.3.8,c,859.7678000000305,19,nonword
377,1,C,6,Lentiform Loewenfeld,3.3.8,c,749.4455000000307,19,nonword
378,1,M,5,Lentiform Loewenfeld,3.3.8,m,652.8869999999879,19,word
379,1,M,5,Lentiform Loewenfeld,3.3.8,m,522.1396999999415,19,word
380,1,M,2,Lentiform Loewenfeld,3.3.8,m,847.9268999999622,19,word
381,1,M,5,Lentiform Loewenfeld,3.3.8,m,590.1525000000838,19,word
382,1,C,7,Lentiform Loewenfeld,3.3.8,c,542.7235999999102,19,nonword
383,1,C,5,Lentiform Loewenfeld,3.3.8,c,791.6652999999933,19,nonword
384,1,C,2,Lentiform Loewenfeld,3.3.8,c,653.9051000000909,19,nonword
385,1,M,1,Lentiform Loewenfeld,3.3.8,m,601.6739000000525,19,word
386,1,M,5,Lentiform Loewenfeld,3.3.8,m,770.3079999999609,19,word
387,0,C,5,Lentiform Loewenfeld,3.3.8,m,661.8207999999868,19,nonword
388,1,M,7,Lentiform Loewenfeld,3.3.8,m,701.1742000000086,19,word
389,1,C,5,Lentiform Loewenfeld,3.3.8,c,652.2630999999819,19,nonword
390,1,C,1,Lentiform Loewenfeld,3.3.8,c,803.0172999999486,19,nonword
391,1,M,3,Lentiform Loewenfeld,3.3.8,m,589.4224000000395,19,word
392,1,C,2,Lentiform Loewenfeld,3.3.8,c,673.5293999999994,19,nonword
393,1,C,2,Lentiform Loewenfeld,3.3.8,c,630.9419999998063,19,nonword
394,1,C,4,Lentiform Loewenfeld,3.3.8,c,681.7051999999676,19,nonword
395,1,C,1,Lentiform Loewenfeld,3.3.8,c,524.9758999999613,19,nonword
396,1,M,5,Lentiform Loewenfeld,3.3.8,m,684.4495000002207,19,word
397,1,C,6,Lentiform Loewenfeld,3.3.8,c,961.7121000000043,19,nonword
398,1,C,1,Lentiform Loewenfeld,3.3.8,c,511.0936999998521,19,nonword
399,1,C,1,Lentiform Loewenfeld,3.3.8,c,523.7367000000086,19,nonword
400,1,M,2,Lentiform Loewenfeld,3.3.8,m,670.8233999998774,19,word
401,1,M,4,Lentiform Loewenfeld,3.3.8,m,580.1195999999763,19,word
402,1,C,4,Lentiform Loewenfeld,3.3.8,c,631.9067000000505,19,nonword
403,0,C,6,Lentiform Loewenfeld,3.3.8,m,582.3175000000047,19,nonword
404,1,M,7,Lentiform Loewenfeld,3.3.8,m,715.5805999999866,19,word
405,1,M,3,Lentiform Loewenfeld,3.3.8,m,580.8341000000946,19,word
406,1,M,1,Lentiform Loewenfeld,3.3.8,m,656.9416000001365,19,word
407,1,M,3,Lentiform Loewenfeld,3.3.8,m,833.0251999999164,19,word
408,1,C,3,Lentiform Loewenfeld,3.3.8,c,766.9445000000997,19,nonword
409,1,M,5,Lentiform Loewenfeld,3.3.8,m,547.3455999998841,19,word
410,1,M,1,Lentiform Loewenfeld,3.3.8,m,483.7767000000458,19,word
411,1,M,3,Lentiform Loewenfeld,3.3.8,m,782.7082999998238,19,word
412,1,C,3,Lentiform Loewenfeld,3.3.8,c,744.9914000000572,19,nonword
413,1,M,2,Lentiform Loewenfeld,3.3.8,m,428.5544000000227,19,word
414,1,M,5,Lentiform Loewenfeld,3.3.8,m,599.840899999952,19,word
415,1,C,7,Lentiform Loewenfeld,3.3.8,c,578.6842000001343,19,nonword
416,1,C,7,Lentiform Loewenfeld,3.3.8,c,604.7192999998806,19,nonword
417,1,M,1,Lentiform Loewenfeld,3.3.8,m,567.6534000000684,19,word
418,1,C,5,Lentiform Loewenfeld,3.3.8,c,762.7589000000153,19,nonword
419,1,C,7,Lentiform Loewenfeld,3.3.8,c,957.5189999999711,19,nonword
