Unnamed: 0,correct_keyboard_response_1,correct_response,flanker_condition,opensesame_codename,opensesame_version,response_keyboard_response_1,response_time_keyboard_response_1,subject_nr,target_type
0,1,C,1,Lentiform Loewenfeld,3.3.8,c,1067.2930999999808,21,nonword
1,1,M,1,Lentiform Loewenfeld,3.3.8,m,780.6473000000115,21,word
2,1,M,2,Lentiform Loewenfeld,3.3.8,m,597.2258999999904,21,word
3,1,C,6,Lentiform Loewenfeld,3.3.8,c,775.8176000000094,21,nonword
4,1,M,6,Lentiform Loewenfeld,3.3.8,m,564.5491000000038,21,word
5,1,C,2,Lentiform Loewenfeld,3.3.8,c,649.8302999999723,21,nonword
6,0,C,6,Lentiform Loewenfeld,3.3.8,m,685.835000000021,21,nonword
7,1,C,5,Lentiform Loewenfeld,3.3.8,c,849.0599999999686,21,nonword
8,1,M,7,Lentiform Loewenfeld,3.3.8,m,540.921800000011,21,word
9,1,M,6,Lentiform Loewenfeld,3.3.8,m,589.2197999999917,21,word
10,1,C,3,Lentiform Loewenfeld,3.3.8,c,743.3137999999744,21,nonword
11,1,M,3,Lentiform Loewenfeld,3.3.8,m,627.081600000005,21,word
12,1,M,2,Lentiform Loewenfeld,3.3.8,m,535.3326000000234,21,word
13,1,C,3,Lentiform Loewenfeld,3.3.8,c,578.7780999999959,21,nonword
14,1,M,4,Lentiform Loewenfeld,3.3.8,m,541.0396999999648,21,word
15,1,C,1,Lentiform Loewenfeld,3.3.8,c,611.6407999999938,21,nonword
16,1,M,6,Lentiform Loewenfeld,3.3.8,m,601.061699999962,21,word
17,1,M,4,Lentiform Loewenfeld,3.3.8,m,511.0289000000048,21,word
18,1,M,3,Lentiform Loewenfeld,3.3.8,m,592.7997000000323,21,word
19,1,M,7,Lentiform Loewenfeld,3.3.8,m,818.0500999999349,21,word
20,1,C,7,Lentiform Loewenfeld,3.3.8,c,543.2971999999427,21,nonword
21,1,M,4,Lentiform Loewenfeld,3.3.8,m,597.2552999999898,21,word
22,1,M,5,Lentiform Loewenfeld,3.3.8,m,680.6826000000583,21,word
23,1,M,7,Lentiform Loewenfeld,3.3.8,m,596.5799000000407,21,word
24,1,M,7,Lentiform Loewenfeld,3.3.8,m,751.3886000000057,21,word
25,1,C,3,Lentiform Loewenfeld,3.3.8,c,621.8107000000018,21,nonword
26,1,C,3,Lentiform Loewenfeld,3.3.8,c,649.4043999999994,21,nonword
27,1,C,2,Lentiform Loewenfeld,3.3.8,c,596.2064000000537,21,nonword
28,1,M,5,Lentiform Loewenfeld,3.3.8,m,661.418800000014,21,word
29,1,C,6,Lentiform Loewenfeld,3.3.8,c,649.6836999999941,21,nonword
30,1,C,3,Lentiform Loewenfeld,3.3.8,c,1372.365199999971,21,nonword
31,1,C,5,Lentiform Loewenfeld,3.3.8,c,641.1045000000158,21,nonword
32,0,C,5,Lentiform Loewenfeld,3.3.8,m,486.5183000000252,21,nonword
33,1,M,1,Lentiform Loewenfeld,3.3.8,m,674.6972999999998,21,word
34,1,M,1,Lentiform Loewenfeld,3.3.8,m,671.7124000000185,21,word
35,1,C,2,Lentiform Loewenfeld,3.3.8,c,638.9739000000118,21,nonword
36,1,C,6,Lentiform Loewenfeld,3.3.8,c,691.5940999999875,21,nonword
37,1,C,1,Lentiform Loewenfeld,3.3.8,c,571.1775999999954,21,nonword
38,1,C,3,Lentiform Loewenfeld,3.3.8,c,597.284399999975,21,nonword
39,1,M,2,Lentiform Loewenfeld,3.3.8,m,674.3871000000217,21,word
40,1,C,3,Lentiform Loewenfeld,3.3.8,c,767.3190000000177,21,nonword
41,1,M,5,Lentiform Loewenfeld,3.3.8,m,598.5256999999983,21,word
42,1,C,1,Lentiform Loewenfeld,3.3.8,c,715.7143999999971,21,nonword
43,1,C,1,Lentiform Loewenfeld,3.3.8,c,701.1420999999682,21,nonword
44,1,M,5,Lentiform Loewenfeld,3.3.8,m,581.6386000000348,21,word
45,1,M,7,Lentiform Loewenfeld,3.3.8,m,592.7411000000429,21,word
46,1,C,1,Lentiform Loewenfeld,3.3.8,c,580.8335000000079,21,nonword
47,1,C,4,Lentiform Loewenfeld,3.3.8,c,659.9118000000017,21,nonword
48,1,M,7,Lentiform Loewenfeld,3.3.8,m,508.17600000000675,21,word
49,1,C,4,Lentiform Loewenfeld,3.3.8,c,675.4505000000354,21,nonword
50,1,C,3,Lentiform Loewenfeld,3.3.8,c,583.422099999967,21,nonword
51,1,C,7,Lentiform Loewenfeld,3.3.8,c,513.5041999999667,21,nonword
52,1,C,1,Lentiform Loewenfeld,3.3.8,c,1080.6867000000202,21,nonword
53,1,M,6,Lentiform Loewenfeld,3.3.8,m,577.5362000000023,21,word
54,1,C,5,Lentiform Loewenfeld,3.3.8,c,858.9465999999957,21,nonword
55,0,M,6,Lentiform Loewenfeld,3.3.8,c,664.3304000000062,21,word
56,1,M,3,Lentiform Loewenfeld,3.3.8,m,862.4073999999673,21,word
57,1,C,6,Lentiform Loewenfeld,3.3.8,c,634.3508999999904,21,nonword
58,1,C,2,Lentiform Loewenfeld,3.3.8,c,688.3012000000454,21,nonword
59,0,M,7,Lentiform Loewenfeld,3.3.8,,2150.019499999995,21,word
60,1,C,5,Lentiform Loewenfeld,3.3.8,c,652.1560999999638,21,nonword
61,1,C,6,Lentiform Loewenfeld,3.3.8,c,1096.4393000000273,21,nonword
62,1,C,6,Lentiform Loewenfeld,3.3.8,c,643.6211999999941,21,nonword
63,1,C,5,Lentiform Loewenfeld,3.3.8,c,727.0203999999794,21,nonword
64,1,M,2,Lentiform Loewenfeld,3.3.8,m,660.8142999999691,21,word
65,1,C,7,Lentiform Loewenfeld,3.3.8,c,544.4731000000029,21,nonword
66,1,C,3,Lentiform Loewenfeld,3.3.8,c,604.6759000000311,21,nonword
67,1,M,7,Lentiform Loewenfeld,3.3.8,m,663.6064999999944,21,word
68,1,C,4,Lentiform Loewenfeld,3.3.8,c,729.3674000000465,21,nonword
69,1,M,6,Lentiform Loewenfeld,3.3.8,m,683.3629999999539,21,word
70,1,C,7,Lentiform Loewenfeld,3.3.8,c,647.0549000000465,21,nonword
71,1,M,6,Lentiform Loewenfeld,3.3.8,m,561.3425000000279,21,word
72,1,C,1,Lentiform Loewenfeld,3.3.8,c,593.7544999999809,21,nonword
73,1,M,7,Lentiform Loewenfeld,3.3.8,m,549.8552999999956,21,word
74,1,M,5,Lentiform Loewenfeld,3.3.8,m,797.952500000014,21,word
75,1,M,5,Lentiform Loewenfeld,3.3.8,m,565.5530000000144,21,word
76,1,M,3,Lentiform Loewenfeld,3.3.8,m,497.0023999999976,21,word
77,1,C,2,Lentiform Loewenfeld,3.3.8,c,599.744100000069,21,nonword
78,1,M,2,Lentiform Loewenfeld,3.3.8,m,622.3641000000061,21,word
79,1,M,2,Lentiform Loewenfeld,3.3.8,m,620.1251999999513,21,word
80,1,M,4,Lentiform Loewenfeld,3.3.8,m,480.05259999993723,21,word
81,1,M,5,Lentiform Loewenfeld,3.3.8,m,763.3597000000882,21,word
82,1,C,3,Lentiform Loewenfeld,3.3.8,c,742.7392000000109,21,nonword
83,1,C,5,Lentiform Loewenfeld,3.3.8,c,654.311699999962,21,nonword
84,1,M,1,Lentiform Loewenfeld,3.3.8,m,592.1243000000832,21,word
85,1,C,1,Lentiform Loewenfeld,3.3.8,c,700.3542000000016,21,nonword
86,1,M,3,Lentiform Loewenfeld,3.3.8,m,503.9817000000039,21,word
87,1,C,1,Lentiform Loewenfeld,3.3.8,c,674.617200000037,21,nonword
88,1,C,2,Lentiform Loewenfeld,3.3.8,c,1066.7140000000363,21,nonword
89,1,M,6,Lentiform Loewenfeld,3.3.8,m,600.5592000000179,21,word
90,1,M,3,Lentiform Loewenfeld,3.3.8,m,567.4760000000242,21,word
91,1,M,5,Lentiform Loewenfeld,3.3.8,m,501.6144000000204,21,word
92,1,C,6,Lentiform Loewenfeld,3.3.8,c,534.5836000000127,21,nonword
93,1,C,5,Lentiform Loewenfeld,3.3.8,c,690.8381999999983,21,nonword
94,1,M,2,Lentiform Loewenfeld,3.3.8,m,741.0653999999631,21,word
95,1,C,1,Lentiform Loewenfeld,3.3.8,c,746.8173999999417,21,nonword
96,1,C,1,Lentiform Loewenfeld,3.3.8,c,599.2577000000165,21,nonword
97,1,M,6,Lentiform Loewenfeld,3.3.8,m,471.5871999999508,21,word
98,1,C,7,Lentiform Loewenfeld,3.3.8,c,646.624300000025,21,nonword
99,1,M,4,Lentiform Loewenfeld,3.3.8,m,559.3739999999525,21,word
100,1,C,5,Lentiform Loewenfeld,3.3.8,c,586.1444000000483,21,nonword
101,1,C,4,Lentiform Loewenfeld,3.3.8,c,512.4055999999982,21,nonword
102,1,M,1,Lentiform Loewenfeld,3.3.8,m,543.9272999999812,21,word
103,1,C,2,Lentiform Loewenfeld,3.3.8,c,480.3180000000284,21,nonword
104,1,C,2,Lentiform Loewenfeld,3.3.8,c,626.8847000000533,21,nonword
105,1,C,2,Lentiform Loewenfeld,3.3.8,c,607.2920000000158,21,nonword
106,1,C,6,Lentiform Loewenfeld,3.3.8,c,545.1110999999219,21,nonword
107,1,M,1,Lentiform Loewenfeld,3.3.8,m,704.836500000034,21,word
108,1,C,3,Lentiform Loewenfeld,3.3.8,c,753.2961999999825,21,nonword
109,1,C,3,Lentiform Loewenfeld,3.3.8,c,603.0518000000156,21,nonword
110,1,C,1,Lentiform Loewenfeld,3.3.8,c,768.9976000000024,21,nonword
111,1,M,7,Lentiform Loewenfeld,3.3.8,m,568.8052000000025,21,word
112,1,M,4,Lentiform Loewenfeld,3.3.8,m,504.015699999989,21,word
113,1,M,2,Lentiform Loewenfeld,3.3.8,m,685.4267000000109,21,word
114,1,C,1,Lentiform Loewenfeld,3.3.8,c,661.6898999999976,21,nonword
115,1,M,5,Lentiform Loewenfeld,3.3.8,m,559.4188999999897,21,word
116,1,M,2,Lentiform Loewenfeld,3.3.8,m,572.2371000000276,21,word
117,0,C,1,Lentiform Loewenfeld,3.3.8,m,560.1365000000224,21,nonword
118,1,M,2,Lentiform Loewenfeld,3.3.8,m,967.5837000000174,21,word
119,1,M,3,Lentiform Loewenfeld,3.3.8,m,575.6129000000656,21,word
120,1,C,7,Lentiform Loewenfeld,3.3.8,c,797.0804999999818,21,nonword
121,1,M,6,Lentiform Loewenfeld,3.3.8,m,520.311699999962,21,word
122,1,M,5,Lentiform Loewenfeld,3.3.8,m,439.1128000000026,21,word
123,1,C,7,Lentiform Loewenfeld,3.3.8,c,603.7081999999355,21,nonword
124,1,C,6,Lentiform Loewenfeld,3.3.8,c,700.8152000001282,21,nonword
125,1,C,5,Lentiform Loewenfeld,3.3.8,c,1102.3933999998844,21,nonword
126,1,C,5,Lentiform Loewenfeld,3.3.8,c,864.5848000000115,21,nonword
127,1,M,2,Lentiform Loewenfeld,3.3.8,m,500.8310000000056,21,word
128,1,M,6,Lentiform Loewenfeld,3.3.8,m,676.4898999998695,21,word
129,1,C,3,Lentiform Loewenfeld,3.3.8,c,597.1539000000339,21,nonword
130,1,M,2,Lentiform Loewenfeld,3.3.8,m,502.9664000000339,21,word
131,0,C,5,Lentiform Loewenfeld,3.3.8,m,480.2476000000024,21,nonword
132,1,C,3,Lentiform Loewenfeld,3.3.8,c,848.5412999999826,21,nonword
133,1,C,1,Lentiform Loewenfeld,3.3.8,c,673.5834000000032,21,nonword
134,1,C,1,Lentiform Loewenfeld,3.3.8,c,788.8520000000717,21,nonword
135,1,M,5,Lentiform Loewenfeld,3.3.8,m,457.9329999999609,21,word
136,1,M,5,Lentiform Loewenfeld,3.3.8,m,452.52719999995315,21,word
137,1,M,2,Lentiform Loewenfeld,3.3.8,m,466.500400000019,21,word
138,1,C,5,Lentiform Loewenfeld,3.3.8,c,602.5916000000434,21,nonword
139,1,C,5,Lentiform Loewenfeld,3.3.8,c,685.1821000000346,21,nonword
140,0,M,6,Lentiform Loewenfeld,3.3.8,c,795.266500000027,21,word
141,1,M,1,Lentiform Loewenfeld,3.3.8,m,423.7294999999576,21,word
142,1,M,5,Lentiform Loewenfeld,3.3.8,m,476.8060000000405,21,word
143,1,C,6,Lentiform Loewenfeld,3.3.8,c,580.9610000000685,21,nonword
144,1,M,3,Lentiform Loewenfeld,3.3.8,m,573.1651999999885,21,word
145,1,M,4,Lentiform Loewenfeld,3.3.8,m,670.7931000000681,21,word
146,1,C,2,Lentiform Loewenfeld,3.3.8,c,594.3748999999953,21,nonword
147,1,C,2,Lentiform Loewenfeld,3.3.8,c,697.655199999921,21,nonword
148,1,C,6,Lentiform Loewenfeld,3.3.8,c,530.5881999999983,21,nonword
149,1,M,5,Lentiform Loewenfeld,3.3.8,m,533.8316999999806,21,word
150,1,M,1,Lentiform Loewenfeld,3.3.8,m,826.6142000000109,21,word
151,1,M,6,Lentiform Loewenfeld,3.3.8,m,632.5249999999651,21,word
152,1,M,3,Lentiform Loewenfeld,3.3.8,m,477.81280000007246,21,word
153,0,C,4,Lentiform Loewenfeld,3.3.8,m,1104.3569000000134,21,nonword
154,1,M,4,Lentiform Loewenfeld,3.3.8,m,915.9024000000791,21,word
155,1,M,3,Lentiform Loewenfeld,3.3.8,m,424.4649999999674,21,word
156,1,C,6,Lentiform Loewenfeld,3.3.8,c,645.4125999999815,21,nonword
157,1,M,4,Lentiform Loewenfeld,3.3.8,m,621.8236999999499,21,word
158,1,C,1,Lentiform Loewenfeld,3.3.8,c,567.3925000000163,21,nonword
159,1,C,5,Lentiform Loewenfeld,3.3.8,c,656.7470000000321,21,nonword
160,1,C,6,Lentiform Loewenfeld,3.3.8,c,547.8842000000295,21,nonword
161,1,C,2,Lentiform Loewenfeld,3.3.8,c,685.9417999999132,21,nonword
162,1,M,5,Lentiform Loewenfeld,3.3.8,m,440.88000000000466,21,word
163,1,C,7,Lentiform Loewenfeld,3.3.8,c,601.1469999999972,21,nonword
164,0,M,4,Lentiform Loewenfeld,3.3.8,c,543.2244000000064,21,word
165,1,C,1,Lentiform Loewenfeld,3.3.8,c,762.8149999999441,21,nonword
166,1,M,3,Lentiform Loewenfeld,3.3.8,m,619.7407999999123,21,word
167,1,M,6,Lentiform Loewenfeld,3.3.8,m,415.16009999997914,21,word
168,1,C,6,Lentiform Loewenfeld,3.3.8,c,609.4175000000978,21,nonword
169,1,C,4,Lentiform Loewenfeld,3.3.8,c,663.0273999999044,21,nonword
170,1,M,5,Lentiform Loewenfeld,3.3.8,m,735.4372999999323,21,word
171,1,C,6,Lentiform Loewenfeld,3.3.8,c,622.1629000001121,21,nonword
172,1,C,5,Lentiform Loewenfeld,3.3.8,c,628.7956000000122,21,nonword
173,1,C,2,Lentiform Loewenfeld,3.3.8,c,515.0559999999823,21,nonword
174,1,C,2,Lentiform Loewenfeld,3.3.8,c,526.6415999999736,21,nonword
175,1,M,2,Lentiform Loewenfeld,3.3.8,m,616.7353000000003,21,word
176,1,C,4,Lentiform Loewenfeld,3.3.8,c,717.2091999999247,21,nonword
177,1,M,1,Lentiform Loewenfeld,3.3.8,m,542.7697999999509,21,word
178,1,M,3,Lentiform Loewenfeld,3.3.8,m,525.5709999999381,21,word
179,1,M,1,Lentiform Loewenfeld,3.3.8,m,732.7007999999914,21,word
180,1,M,6,Lentiform Loewenfeld,3.3.8,m,480.0838999999687,21,word
181,1,C,6,Lentiform Loewenfeld,3.3.8,c,627.7290000001085,21,nonword
182,1,C,4,Lentiform Loewenfeld,3.3.8,c,1009.6214000000618,21,nonword
183,1,M,5,Lentiform Loewenfeld,3.3.8,m,545.3419999998878,21,word
184,1,C,5,Lentiform Loewenfeld,3.3.8,c,593.1342999999761,21,nonword
185,1,M,5,Lentiform Loewenfeld,3.3.8,m,542.0674999999464,21,word
186,0,M,6,Lentiform Loewenfeld,3.3.8,c,801.1766000000061,21,word
187,1,C,6,Lentiform Loewenfeld,3.3.8,c,658.6300999999512,21,nonword
188,1,C,2,Lentiform Loewenfeld,3.3.8,c,620.3462999999756,21,nonword
189,1,M,5,Lentiform Loewenfeld,3.3.8,m,451.79410000005737,21,word
190,1,C,4,Lentiform Loewenfeld,3.3.8,c,644.593499999959,21,nonword
191,1,M,3,Lentiform Loewenfeld,3.3.8,m,521.3193000000902,21,word
192,1,M,4,Lentiform Loewenfeld,3.3.8,m,845.1256000000285,21,word
193,1,C,5,Lentiform Loewenfeld,3.3.8,c,1380.170599999954,21,nonword
194,1,C,2,Lentiform Loewenfeld,3.3.8,c,573.5211000000127,21,nonword
195,1,C,3,Lentiform Loewenfeld,3.3.8,c,730.622999999905,21,nonword
196,1,M,4,Lentiform Loewenfeld,3.3.8,m,534.5209999999497,21,word
197,1,M,1,Lentiform Loewenfeld,3.3.8,m,481.80689999996684,21,word
198,1,C,6,Lentiform Loewenfeld,3.3.8,c,1014.9077999999281,21,nonword
199,1,C,4,Lentiform Loewenfeld,3.3.8,c,764.468200000003,21,nonword
200,1,C,5,Lentiform Loewenfeld,3.3.8,c,623.9131000000052,21,nonword
201,1,M,7,Lentiform Loewenfeld,3.3.8,m,612.7878000000492,21,word
202,1,M,6,Lentiform Loewenfeld,3.3.8,m,475.70779999997467,21,word
203,1,M,2,Lentiform Loewenfeld,3.3.8,m,890.5197000000626,21,word
204,1,M,2,Lentiform Loewenfeld,3.3.8,m,403.0494999999646,21,word
205,1,C,7,Lentiform Loewenfeld,3.3.8,c,662.8517999999458,21,nonword
206,1,C,7,Lentiform Loewenfeld,3.3.8,c,472.5636999999406,21,nonword
207,1,C,4,Lentiform Loewenfeld,3.3.8,c,485.3896000001114,21,nonword
208,1,M,1,Lentiform Loewenfeld,3.3.8,m,540.5589000000618,21,word
209,1,M,3,Lentiform Loewenfeld,3.3.8,m,499.1114000000525,21,word
210,1,M,6,Lentiform Loewenfeld,3.3.8,m,935.0250000000233,21,word
211,1,C,6,Lentiform Loewenfeld,3.3.8,c,657.6206000000238,21,nonword
212,1,C,5,Lentiform Loewenfeld,3.3.8,c,759.1842999999644,21,nonword
213,1,M,1,Lentiform Loewenfeld,3.3.8,m,506.90280000003986,21,word
214,1,M,1,Lentiform Loewenfeld,3.3.8,m,619.062399999937,21,word
215,1,M,6,Lentiform Loewenfeld,3.3.8,m,844.4271999999182,21,word
216,1,C,3,Lentiform Loewenfeld,3.3.8,c,658.8622000000905,21,nonword
217,1,M,7,Lentiform Loewenfeld,3.3.8,m,512.4736000000266,21,word
218,1,M,3,Lentiform Loewenfeld,3.3.8,m,496.8981999999378,21,word
219,1,M,1,Lentiform Loewenfeld,3.3.8,m,507.66150000004563,21,word
220,1,M,6,Lentiform Loewenfeld,3.3.8,m,443.94880000001285,21,word
221,1,C,1,Lentiform Loewenfeld,3.3.8,c,573.4418999999762,21,nonword
222,0,M,1,Lentiform Loewenfeld,3.3.8,c,1206.083600000013,21,word
223,1,C,7,Lentiform Loewenfeld,3.3.8,c,652.5782000001054,21,nonword
224,1,C,7,Lentiform Loewenfeld,3.3.8,c,726.702900000033,21,nonword
225,0,M,2,Lentiform Loewenfeld,3.3.8,,2150.0217000000407,21,word
226,1,M,4,Lentiform Loewenfeld,3.3.8,m,555.5632999999216,21,word
227,1,C,5,Lentiform Loewenfeld,3.3.8,c,825.9740000000456,21,nonword
228,1,C,7,Lentiform Loewenfeld,3.3.8,c,649.5217999999877,21,nonword
229,1,M,4,Lentiform Loewenfeld,3.3.8,m,731.6497000000672,21,word
230,1,C,3,Lentiform Loewenfeld,3.3.8,c,581.905700000003,21,nonword
231,1,M,3,Lentiform Loewenfeld,3.3.8,m,623.1659999999683,21,word
232,1,C,2,Lentiform Loewenfeld,3.3.8,c,603.4108999999007,21,nonword
233,1,M,6,Lentiform Loewenfeld,3.3.8,m,549.0317000000505,21,word
234,1,M,5,Lentiform Loewenfeld,3.3.8,m,500.5374000000302,21,word
235,1,C,5,Lentiform Loewenfeld,3.3.8,c,706.9388999999501,21,nonword
236,1,M,2,Lentiform Loewenfeld,3.3.8,m,539.8440999999875,21,word
237,1,M,6,Lentiform Loewenfeld,3.3.8,m,513.268400000059,21,word
238,1,M,7,Lentiform Loewenfeld,3.3.8,m,391.4142999999458,21,word
239,1,C,7,Lentiform Loewenfeld,3.3.8,c,673.0496000000276,21,nonword
240,1,M,5,Lentiform Loewenfeld,3.3.8,m,451.48400000005495,21,word
241,1,M,3,Lentiform Loewenfeld,3.3.8,m,464.25049999996554,21,word
242,1,C,3,Lentiform Loewenfeld,3.3.8,c,532.1833999999799,21,nonword
243,1,M,1,Lentiform Loewenfeld,3.3.8,m,556.9743999999482,21,word
244,1,M,1,Lentiform Loewenfeld,3.3.8,m,504.56240000005346,21,word
245,1,C,7,Lentiform Loewenfeld,3.3.8,c,483.9124000000302,21,nonword
246,1,C,7,Lentiform Loewenfeld,3.3.8,c,683.1242999999085,21,nonword
247,1,M,1,Lentiform Loewenfeld,3.3.8,m,540.2550999999512,21,word
248,1,M,2,Lentiform Loewenfeld,3.3.8,m,411.22939999983646,21,word
249,1,C,7,Lentiform Loewenfeld,3.3.8,c,551.6740999998292,21,nonword
250,1,M,3,Lentiform Loewenfeld,3.3.8,m,619.5727000000188,21,word
251,1,M,3,Lentiform Loewenfeld,3.3.8,m,521.8867000000319,21,word
252,1,M,5,Lentiform Loewenfeld,3.3.8,m,343.9914000000572,21,word
253,1,M,4,Lentiform Loewenfeld,3.3.8,m,427.7552999999607,21,word
254,1,C,6,Lentiform Loewenfeld,3.3.8,c,1067.7332999999635,21,nonword
255,1,M,4,Lentiform Loewenfeld,3.3.8,m,380.2682999999961,21,word
256,1,M,4,Lentiform Loewenfeld,3.3.8,m,411.7317000000039,21,word
257,1,M,7,Lentiform Loewenfeld,3.3.8,m,391.18070000002626,21,word
258,1,M,4,Lentiform Loewenfeld,3.3.8,m,338.32279999996535,21,word
259,1,C,6,Lentiform Loewenfeld,3.3.8,c,474.62670000002254,21,nonword
260,1,C,4,Lentiform Loewenfeld,3.3.8,c,604.9041999999899,21,nonword
261,1,M,2,Lentiform Loewenfeld,3.3.8,m,389.53790000011213,21,word
262,0,C,6,Lentiform Loewenfeld,3.3.8,m,1012.813000000082,21,nonword
263,1,C,1,Lentiform Loewenfeld,3.3.8,c,613.1893000000855,21,nonword
264,1,M,5,Lentiform Loewenfeld,3.3.8,m,649.1415999998571,21,word
265,1,C,5,Lentiform Loewenfeld,3.3.8,c,565.3918000000995,21,nonword
266,1,M,2,Lentiform Loewenfeld,3.3.8,m,524.7149999999674,21,word
267,1,C,1,Lentiform Loewenfeld,3.3.8,c,620.5231000001077,21,nonword
268,1,M,3,Lentiform Loewenfeld,3.3.8,m,398.25659999996424,21,word
269,1,C,2,Lentiform Loewenfeld,3.3.8,c,596.6648000000278,21,nonword
270,0,M,2,Lentiform Loewenfeld,3.3.8,c,711.2868000001181,21,word
271,1,M,4,Lentiform Loewenfeld,3.3.8,m,492.78639999986626,21,word
272,1,M,1,Lentiform Loewenfeld,3.3.8,m,424.3159999999916,21,word
273,1,M,7,Lentiform Loewenfeld,3.3.8,m,380.47750000003725,21,word
274,1,C,3,Lentiform Loewenfeld,3.3.8,c,648.2524999999441,21,nonword
275,1,M,6,Lentiform Loewenfeld,3.3.8,m,462.2096000001766,21,word
276,0,C,4,Lentiform Loewenfeld,3.3.8,m,468.1293000000296,21,nonword
277,1,M,3,Lentiform Loewenfeld,3.3.8,m,754.2542999999132,21,word
278,1,M,7,Lentiform Loewenfeld,3.3.8,m,525.2066999999806,21,word
279,0,C,5,Lentiform Loewenfeld,3.3.8,m,498.9934999999823,21,nonword
280,1,C,4,Lentiform Loewenfeld,3.3.8,c,787.9300000000512,21,nonword
281,1,C,6,Lentiform Loewenfeld,3.3.8,c,605.0114999999059,21,nonword
282,0,M,4,Lentiform Loewenfeld,3.3.8,c,553.2816999999341,21,word
283,1,C,3,Lentiform Loewenfeld,3.3.8,c,739.9188999999315,21,nonword
284,1,M,3,Lentiform Loewenfeld,3.3.8,m,426.13950000004843,21,word
285,1,M,1,Lentiform Loewenfeld,3.3.8,m,941.2375999999931,21,word
286,0,C,4,Lentiform Loewenfeld,3.3.8,m,499.8332999999402,21,nonword
287,1,M,7,Lentiform Loewenfeld,3.3.8,m,839.7528999998467,21,word
288,1,M,4,Lentiform Loewenfeld,3.3.8,m,502.5782000001054,21,word
289,1,C,5,Lentiform Loewenfeld,3.3.8,c,535.7597000000533,21,nonword
290,1,M,4,Lentiform Loewenfeld,3.3.8,m,615.5282000000589,21,word
291,1,C,2,Lentiform Loewenfeld,3.3.8,c,659.925300000119,21,nonword
292,1,M,1,Lentiform Loewenfeld,3.3.8,m,558.2023000000045,21,word
293,1,M,1,Lentiform Loewenfeld,3.3.8,m,539.1320999999298,21,word
294,1,M,7,Lentiform Loewenfeld,3.3.8,m,655.5948999999091,21,word
295,1,M,5,Lentiform Loewenfeld,3.3.8,m,493.3226999999024,21,word
296,1,C,2,Lentiform Loewenfeld,3.3.8,c,612.6294999999227,21,nonword
297,1,M,7,Lentiform Loewenfeld,3.3.8,m,998.5697999999393,21,word
298,1,C,6,Lentiform Loewenfeld,3.3.8,c,632.2981000000145,21,nonword
299,1,M,1,Lentiform Loewenfeld,3.3.8,m,594.7179999999935,21,word
300,1,C,1,Lentiform Loewenfeld,3.3.8,c,764.8386999999639,21,nonword
301,1,M,2,Lentiform Loewenfeld,3.3.8,m,716.0966999999946,21,word
302,1,M,7,Lentiform Loewenfeld,3.3.8,m,575.4382999999216,21,word
303,1,C,7,Lentiform Loewenfeld,3.3.8,c,649.5964000000386,21,nonword
304,1,C,7,Lentiform Loewenfeld,3.3.8,c,611.1263999999501,21,nonword
305,1,M,5,Lentiform Loewenfeld,3.3.8,m,850.6893000000855,21,word
306,1,C,1,Lentiform Loewenfeld,3.3.8,c,831.3976999999722,21,nonword
307,1,C,4,Lentiform Loewenfeld,3.3.8,c,1222.4126999998698,21,nonword
308,1,M,3,Lentiform Loewenfeld,3.3.8,m,575.672499999986,21,word
309,0,C,4,Lentiform Loewenfeld,3.3.8,m,568.4325999999419,21,nonword
310,0,C,2,Lentiform Loewenfeld,3.3.8,m,1008.7090000000317,21,nonword
311,1,M,3,Lentiform Loewenfeld,3.3.8,m,760.6211999999359,21,word
312,1,C,4,Lentiform Loewenfeld,3.3.8,c,595.6797000000952,21,nonword
313,1,C,7,Lentiform Loewenfeld,3.3.8,c,616.1538999999175,21,nonword
314,1,C,6,Lentiform Loewenfeld,3.3.8,c,668.8843000001507,21,nonword
315,1,M,6,Lentiform Loewenfeld,3.3.8,m,525.3471999999601,21,word
316,1,M,4,Lentiform Loewenfeld,3.3.8,m,664.2512999998871,21,word
317,1,C,5,Lentiform Loewenfeld,3.3.8,c,603.1656000000658,21,nonword
318,1,C,1,Lentiform Loewenfeld,3.3.8,c,647.9399999999441,21,nonword
319,1,M,4,Lentiform Loewenfeld,3.3.8,m,712.0309000001289,21,word
320,1,M,3,Lentiform Loewenfeld,3.3.8,m,606.9430999999167,21,word
321,1,M,6,Lentiform Loewenfeld,3.3.8,m,565.0384000000777,21,word
322,0,C,4,Lentiform Loewenfeld,3.3.8,m,602.4784000000218,21,nonword
323,1,M,5,Lentiform Loewenfeld,3.3.8,m,761.0544000000227,21,word
324,1,C,7,Lentiform Loewenfeld,3.3.8,c,582.1700000000419,21,nonword
325,1,M,6,Lentiform Loewenfeld,3.3.8,m,743.108899999992,21,word
326,1,M,4,Lentiform Loewenfeld,3.3.8,m,538.0087000000058,21,word
327,1,C,2,Lentiform Loewenfeld,3.3.8,c,514.1023999999743,21,nonword
328,1,M,5,Lentiform Loewenfeld,3.3.8,m,866.9261000000406,21,word
329,1,C,4,Lentiform Loewenfeld,3.3.8,c,551.3025000001071,21,nonword
330,1,C,7,Lentiform Loewenfeld,3.3.8,c,674.2312999999849,21,nonword
331,1,M,1,Lentiform Loewenfeld,3.3.8,m,778.482399999979,21,word
332,1,C,4,Lentiform Loewenfeld,3.3.8,c,602.0490000001155,21,nonword
333,1,C,3,Lentiform Loewenfeld,3.3.8,c,622.8273000001209,21,nonword
334,1,C,7,Lentiform Loewenfeld,3.3.8,c,933.4198999998625,21,nonword
335,1,M,2,Lentiform Loewenfeld,3.3.8,m,526.1618000001181,21,word
336,1,M,6,Lentiform Loewenfeld,3.3.8,m,600.8010999999242,21,word
337,1,C,3,Lentiform Loewenfeld,3.3.8,c,802.5328999998746,21,nonword
338,1,M,4,Lentiform Loewenfeld,3.3.8,m,484.25359999993816,21,word
339,1,M,2,Lentiform Loewenfeld,3.3.8,m,954.2497999999905,21,word
340,1,C,2,Lentiform Loewenfeld,3.3.8,c,577.4035000001313,21,nonword
341,0,C,1,Lentiform Loewenfeld,3.3.8,m,588.3499999998603,21,nonword
342,1,M,3,Lentiform Loewenfeld,3.3.8,m,690.2908999999054,21,word
343,1,C,3,Lentiform Loewenfeld,3.3.8,c,563.5541999998968,21,nonword
344,1,M,1,Lentiform Loewenfeld,3.3.8,m,734.3167000000831,21,word
345,1,M,7,Lentiform Loewenfeld,3.3.8,m,490.7421999999788,21,word
346,1,C,4,Lentiform Loewenfeld,3.3.8,c,1126.0703000000212,21,nonword
347,1,C,6,Lentiform Loewenfeld,3.3.8,c,688.9738000001526,21,nonword
348,1,C,2,Lentiform Loewenfeld,3.3.8,c,809.7128000000957,21,nonword
349,1,M,5,Lentiform Loewenfeld,3.3.8,m,521.9377999998396,21,word
350,1,C,5,Lentiform Loewenfeld,3.3.8,c,610.4071999998996,21,nonword
351,1,C,3,Lentiform Loewenfeld,3.3.8,c,574.8371000001207,21,nonword
352,1,C,7,Lentiform Loewenfeld,3.3.8,c,659.2463999999454,21,nonword
353,1,M,7,Lentiform Loewenfeld,3.3.8,m,587.0228000000352,21,word
354,1,C,5,Lentiform Loewenfeld,3.3.8,c,518.4732999999542,21,nonword
355,1,C,3,Lentiform Loewenfeld,3.3.8,c,527.7314000001643,21,nonword
356,1,C,4,Lentiform Loewenfeld,3.3.8,c,604.0513999999966,21,nonword
357,1,C,2,Lentiform Loewenfeld,3.3.8,c,415.438700000057,21,nonword
358,1,M,3,Lentiform Loewenfeld,3.3.8,m,630.7235000000801,21,word
359,1,M,7,Lentiform Loewenfeld,3.3.8,m,633.4733999997843,21,word
360,1,M,3,Lentiform Loewenfeld,3.3.8,m,592.7509999998147,21,word
361,1,M,1,Lentiform Loewenfeld,3.3.8,m,648.8293999999296,21,word
362,1,C,7,Lentiform Loewenfeld,3.3.8,c,579.9570000000531,21,nonword
363,1,M,1,Lentiform Loewenfeld,3.3.8,m,975.5369000000646,21,word
364,1,C,2,Lentiform Loewenfeld,3.3.8,c,779.0892999999924,21,nonword
365,1,C,6,Lentiform Loewenfeld,3.3.8,c,859.0335999998497,21,nonword
366,1,C,4,Lentiform Loewenfeld,3.3.8,c,603.9004999999888,21,nonword
367,1,M,7,Lentiform Loewenfeld,3.3.8,m,669.8238000001293,21,word
368,1,M,7,Lentiform Loewenfeld,3.3.8,m,573.0711000000592,21,word
369,1,C,5,Lentiform Loewenfeld,3.3.8,c,1119.3833999999333,21,nonword
370,1,M,7,Lentiform Loewenfeld,3.3.8,m,606.4623999999603,21,word
371,1,M,1,Lentiform Loewenfeld,3.3.8,m,502.08029999991413,21,word
372,0,C,7,Lentiform Loewenfeld,3.3.8,m,1132.7906999998959,21,nonword
373,1,C,4,Lentiform Loewenfeld,3.3.8,c,677.1445999998832,21,nonword
374,1,M,3,Lentiform Loewenfeld,3.3.8,m,509.2558999998728,21,word
375,1,M,6,Lentiform Loewenfeld,3.3.8,m,669.0163000000175,21,word
376,1,C,2,Lentiform Loewenfeld,3.3.8,c,526.9718000000576,21,nonword
377,1,C,7,Lentiform Loewenfeld,3.3.8,c,834.2320000000764,21,nonword
378,1,M,5,Lentiform Loewenfeld,3.3.8,m,671.627300000051,21,word
379,1,C,4,Lentiform Loewenfeld,3.3.8,c,698.3919999998761,21,nonword
380,1,M,2,Lentiform Loewenfeld,3.3.8,m,544.4980000001378,21,word
381,0,M,1,Lentiform Loewenfeld,3.3.8,c,615.6463999999687,21,word
382,0,C,3,Lentiform Loewenfeld,3.3.8,m,922.8864999999059,21,nonword
383,1,M,6,Lentiform Loewenfeld,3.3.8,m,724.2817000000505,21,word
384,1,M,2,Lentiform Loewenfeld,3.3.8,m,776.2468000000808,21,word
385,1,C,6,Lentiform Loewenfeld,3.3.8,c,862.7756999997655,21,nonword
386,1,M,4,Lentiform Loewenfeld,3.3.8,m,611.7065000000875,21,word
387,1,C,2,Lentiform Loewenfeld,3.3.8,c,729.1100000001024,21,nonword
388,1,M,7,Lentiform Loewenfeld,3.3.8,m,442.0246999999508,21,word
389,1,C,2,Lentiform Loewenfeld,3.3.8,c,594.1311000001151,21,nonword
390,1,M,7,Lentiform Loewenfeld,3.3.8,m,491.0519999999088,21,word
391,1,C,7,Lentiform Loewenfeld,3.3.8,c,693.171800000011,21,nonword
392,1,M,3,Lentiform Loewenfeld,3.3.8,m,432.92720000015106,21,word
393,0,C,1,Lentiform Loewenfeld,3.3.8,m,790.5685999999987,21,nonword
394,1,C,4,Lentiform Loewenfeld,3.3.8,c,732.8070000000298,21,nonword
395,1,C,1,Lentiform Loewenfeld,3.3.8,c,1153.2229999998817,21,nonword
396,1,M,4,Lentiform Loewenfeld,3.3.8,m,628.8972000001231,21,word
397,1,C,4,Lentiform Loewenfeld,3.3.8,c,799.3114999998361,21,nonword
398,1,C,1,Lentiform Loewenfeld,3.3.8,c,726.9615999999223,21,nonword
399,1,C,2,Lentiform Loewenfeld,3.3.8,c,597.3469999999506,21,nonword
400,1,C,4,Lentiform Loewenfeld,3.3.8,c,551.4200999999885,21,nonword
401,1,M,5,Lentiform Loewenfeld,3.3.8,m,527.6592999999411,21,word
402,1,C,3,Lentiform Loewenfeld,3.3.8,c,517.4658000000054,21,nonword
403,1,C,7,Lentiform Loewenfeld,3.3.8,c,590.7149999999674,21,nonword
404,1,C,4,Lentiform Loewenfeld,3.3.8,c,895.7149000001373,21,nonword
405,1,C,1,Lentiform Loewenfeld,3.3.8,c,699.9244999999646,21,nonword
406,1,M,7,Lentiform Loewenfeld,3.3.8,m,685.8408000001218,21,word
407,1,M,7,Lentiform Loewenfeld,3.3.8,m,698.7658999999985,21,word
408,1,M,2,Lentiform Loewenfeld,3.3.8,m,558.0729999998584,21,word
409,1,M,4,Lentiform Loewenfeld,3.3.8,m,550.1485999999568,21,word
410,1,C,7,Lentiform Loewenfeld,3.3.8,c,600.4410999999382,21,nonword
411,1,C,3,Lentiform Loewenfeld,3.3.8,c,639.3415000000969,21,nonword
412,1,C,3,Lentiform Loewenfeld,3.3.8,c,572.3462999998592,21,nonword
413,0,M,2,Lentiform Loewenfeld,3.3.8,c,651.4071000001859,21,word
414,1,M,2,Lentiform Loewenfeld,3.3.8,m,700.1314000000712,21,word
415,1,M,6,Lentiform Loewenfeld,3.3.8,m,674.3871999997646,21,word
416,1,C,3,Lentiform Loewenfeld,3.3.8,c,868.185099999886,21,nonword
417,1,M,4,Lentiform Loewenfeld,3.3.8,m,879.436699999962,21,word
418,0,C,6,Lentiform Loewenfeld,3.3.8,m,1088.476400000276,21,nonword
419,1,C,5,Lentiform Loewenfeld,3.3.8,c,818.4165000000503,21,nonword
