Unnamed: 0,correct_keyboard_response_1,correct_response,flanker_condition,opensesame_codename,opensesame_version,response_keyboard_response_1,response_time_keyboard_response_1,subject_nr,target_type
0,1,M,6,Lentiform Loewenfeld,3.3.8,m,566.5151999999944,42,word
1,1,C,1,Lentiform Loewenfeld,3.3.8,c,916.9211999999534,42,nonword
2,1,M,5,Lentiform Loewenfeld,3.3.8,m,562.4480999999796,42,word
3,1,M,6,Lentiform Loewenfeld,3.3.8,m,524.9051999999792,42,word
4,1,C,7,Lentiform Loewenfeld,3.3.8,c,787.0265000000072,42,nonword
5,1,M,1,Lentiform Loewenfeld,3.3.8,m,520.265699999989,42,word
6,1,C,5,Lentiform Loewenfeld,3.3.8,c,640.4845999999961,42,nonword
7,1,C,5,Lentiform Loewenfeld,3.3.8,c,820.0637999999744,42,nonword
8,1,M,2,Lentiform Loewenfeld,3.3.8,m,462.53429999997024,42,word
9,1,M,2,Lentiform Loewenfeld,3.3.8,m,529.0902999999525,42,word
10,1,C,1,Lentiform Loewenfeld,3.3.8,c,552.5032000000356,42,nonword
11,1,C,2,Lentiform Loewenfeld,3.3.8,c,589.9308999999776,42,nonword
12,1,C,7,Lentiform Loewenfeld,3.3.8,c,609.7350999999908,42,nonword
13,1,M,7,Lentiform Loewenfeld,3.3.8,m,527.4850000000151,42,word
14,1,M,2,Lentiform Loewenfeld,3.3.8,m,670.2749000000185,42,word
15,1,C,5,Lentiform Loewenfeld,3.3.8,c,778.5876999999455,42,nonword
16,0,M,4,Lentiform Loewenfeld,3.3.8,c,610.8058000000019,42,word
17,1,M,7,Lentiform Loewenfeld,3.3.8,m,509.7414999999746,42,word
18,1,C,5,Lentiform Loewenfeld,3.3.8,c,524.6651999999885,42,nonword
19,1,C,6,Lentiform Loewenfeld,3.3.8,c,566.0981000000029,42,nonword
20,1,M,2,Lentiform Loewenfeld,3.3.8,m,531.5959000000439,42,word
21,1,M,3,Lentiform Loewenfeld,3.3.8,m,579.5764999999956,42,word
22,1,M,3,Lentiform Loewenfeld,3.3.8,m,479.64869999999064,42,word
23,0,M,1,Lentiform Loewenfeld,3.3.8,c,552.9183000000194,42,word
24,1,C,7,Lentiform Loewenfeld,3.3.8,c,738.2396000000008,42,nonword
25,1,C,3,Lentiform Loewenfeld,3.3.8,c,677.9583000000275,42,nonword
26,1,M,5,Lentiform Loewenfeld,3.3.8,m,558.1843999999983,42,word
27,1,C,7,Lentiform Loewenfeld,3.3.8,c,607.3691000000108,42,nonword
28,1,M,2,Lentiform Loewenfeld,3.3.8,m,596.7309999999998,42,word
29,1,M,4,Lentiform Loewenfeld,3.3.8,m,605.6195999999763,42,word
30,1,C,3,Lentiform Loewenfeld,3.3.8,c,732.2439000000595,42,nonword
31,1,M,5,Lentiform Loewenfeld,3.3.8,m,558.1498999999603,42,word
32,1,M,2,Lentiform Loewenfeld,3.3.8,m,591.2746000000625,42,word
33,1,C,5,Lentiform Loewenfeld,3.3.8,c,702.4120000000112,42,nonword
34,1,M,5,Lentiform Loewenfeld,3.3.8,m,472.9587000000174,42,word
35,1,M,4,Lentiform Loewenfeld,3.3.8,m,595.9124999999476,42,word
36,1,M,6,Lentiform Loewenfeld,3.3.8,m,443.33129999999073,42,word
37,1,C,6,Lentiform Loewenfeld,3.3.8,c,589.4734999999637,42,nonword
38,1,C,2,Lentiform Loewenfeld,3.3.8,c,570.7054000000353,42,nonword
39,1,M,7,Lentiform Loewenfeld,3.3.8,m,403.4585000000079,42,word
40,1,M,5,Lentiform Loewenfeld,3.3.8,m,496.24580000000424,42,word
41,0,C,2,Lentiform Loewenfeld,3.3.8,m,629.3697000000102,42,nonword
42,1,C,5,Lentiform Loewenfeld,3.3.8,c,709.4322000000102,42,nonword
43,1,M,1,Lentiform Loewenfeld,3.3.8,m,509.01820000002044,42,word
44,0,C,1,Lentiform Loewenfeld,3.3.8,m,763.152700000006,42,nonword
45,1,C,6,Lentiform Loewenfeld,3.3.8,c,652.7455999999656,42,nonword
46,1,M,5,Lentiform Loewenfeld,3.3.8,m,533.5713999999862,42,word
47,1,M,6,Lentiform Loewenfeld,3.3.8,m,525.4518999999564,42,word
48,1,C,5,Lentiform Loewenfeld,3.3.8,c,873.5301999999792,42,nonword
49,1,C,1,Lentiform Loewenfeld,3.3.8,c,643.6243999999715,42,nonword
50,1,M,1,Lentiform Loewenfeld,3.3.8,m,555.905299999984,42,word
51,1,M,1,Lentiform Loewenfeld,3.3.8,m,507.5323000000208,42,word
52,0,M,2,Lentiform Loewenfeld,3.3.8,c,657.4447999999975,42,word
53,1,M,3,Lentiform Loewenfeld,3.3.8,m,914.0346000000136,42,word
54,1,C,1,Lentiform Loewenfeld,3.3.8,c,912.4970000000321,42,nonword
55,1,M,7,Lentiform Loewenfeld,3.3.8,m,512.6659000000218,42,word
56,1,C,7,Lentiform Loewenfeld,3.3.8,c,661.0844999999972,42,nonword
57,1,M,4,Lentiform Loewenfeld,3.3.8,m,476.7130999999936,42,word
58,1,C,4,Lentiform Loewenfeld,3.3.8,c,647.3206000000355,42,nonword
59,1,C,2,Lentiform Loewenfeld,3.3.8,c,763.242900000012,42,nonword
60,0,C,2,Lentiform Loewenfeld,3.3.8,m,640.1478000000352,42,nonword
61,1,C,1,Lentiform Loewenfeld,3.3.8,c,1031.969999999972,42,nonword
62,1,M,4,Lentiform Loewenfeld,3.3.8,m,682.6298999999417,42,word
63,1,M,6,Lentiform Loewenfeld,3.3.8,m,531.7329999999492,42,word
64,1,M,7,Lentiform Loewenfeld,3.3.8,m,655.295999999973,42,word
65,1,C,2,Lentiform Loewenfeld,3.3.8,c,748.5149000000092,42,nonword
66,1,C,4,Lentiform Loewenfeld,3.3.8,c,775.1448000000091,42,nonword
67,1,M,5,Lentiform Loewenfeld,3.3.8,m,611.5832999999402,42,word
68,1,C,7,Lentiform Loewenfeld,3.3.8,c,607.6995999999926,42,nonword
69,1,C,1,Lentiform Loewenfeld,3.3.8,c,536.4490999999107,42,nonword
70,1,M,2,Lentiform Loewenfeld,3.3.8,m,556.6047000000253,42,word
71,1,M,3,Lentiform Loewenfeld,3.3.8,m,588.2940999999992,42,word
72,1,M,7,Lentiform Loewenfeld,3.3.8,m,648.7337000000407,42,word
73,1,C,3,Lentiform Loewenfeld,3.3.8,c,569.9933000000892,42,nonword
74,1,C,4,Lentiform Loewenfeld,3.3.8,c,657.2902000000468,42,nonword
75,1,C,7,Lentiform Loewenfeld,3.3.8,c,677.5226999999722,42,nonword
76,1,C,7,Lentiform Loewenfeld,3.3.8,c,742.126900000032,42,nonword
77,1,M,4,Lentiform Loewenfeld,3.3.8,m,594.8250999999582,42,word
78,1,M,3,Lentiform Loewenfeld,3.3.8,m,470.75070000009146,42,word
79,1,C,7,Lentiform Loewenfeld,3.3.8,c,592.6015999999945,42,nonword
80,1,C,6,Lentiform Loewenfeld,3.3.8,c,1063.8748999999953,42,nonword
81,1,M,4,Lentiform Loewenfeld,3.3.8,m,537.033000000054,42,word
82,1,C,1,Lentiform Loewenfeld,3.3.8,c,465.1535000000731,42,nonword
83,1,C,1,Lentiform Loewenfeld,3.3.8,c,597.0811000000103,42,nonword
84,1,M,4,Lentiform Loewenfeld,3.3.8,m,485.00070000003325,42,word
85,1,M,3,Lentiform Loewenfeld,3.3.8,m,442.7912999999826,42,word
86,1,C,6,Lentiform Loewenfeld,3.3.8,c,539.2361000000383,42,nonword
87,1,M,7,Lentiform Loewenfeld,3.3.8,m,429.7678000000888,42,word
88,1,M,6,Lentiform Loewenfeld,3.3.8,m,570.0975999999791,42,word
89,1,C,6,Lentiform Loewenfeld,3.3.8,c,703.8967999999295,42,nonword
90,1,M,7,Lentiform Loewenfeld,3.3.8,m,541.6354000000283,42,word
91,1,C,4,Lentiform Loewenfeld,3.3.8,c,504.7191000000457,42,nonword
92,1,M,3,Lentiform Loewenfeld,3.3.8,m,535.6830999999074,42,word
93,1,M,5,Lentiform Loewenfeld,3.3.8,m,502.0011999999988,42,word
94,0,C,4,Lentiform Loewenfeld,3.3.8,m,489.6010000000242,42,nonword
95,0,M,7,Lentiform Loewenfeld,3.3.8,c,865.5459000000264,42,word
96,1,M,4,Lentiform Loewenfeld,3.3.8,m,666.942699999956,42,word
97,1,M,4,Lentiform Loewenfeld,3.3.8,m,534.5525999999954,42,word
98,1,M,2,Lentiform Loewenfeld,3.3.8,m,482.27229999995325,42,word
99,1,C,3,Lentiform Loewenfeld,3.3.8,c,680.7533999999869,42,nonword
100,1,M,2,Lentiform Loewenfeld,3.3.8,m,487.469700000016,42,word
101,1,C,1,Lentiform Loewenfeld,3.3.8,c,563.4472999999998,42,nonword
102,1,C,3,Lentiform Loewenfeld,3.3.8,c,730.028399999952,42,nonword
103,1,C,6,Lentiform Loewenfeld,3.3.8,c,620.9331000000238,42,nonword
104,1,C,6,Lentiform Loewenfeld,3.3.8,c,563.203300000052,42,nonword
105,1,M,4,Lentiform Loewenfeld,3.3.8,m,560.6567999999388,42,word
106,1,M,7,Lentiform Loewenfeld,3.3.8,m,677.411199999915,42,word
107,1,C,3,Lentiform Loewenfeld,3.3.8,c,526.486200000043,42,nonword
108,1,C,4,Lentiform Loewenfeld,3.3.8,c,549.5907000000007,42,nonword
109,1,M,5,Lentiform Loewenfeld,3.3.8,m,460.5247999999556,42,word
110,1,C,2,Lentiform Loewenfeld,3.3.8,c,545.1277999999584,42,nonword
111,0,C,1,Lentiform Loewenfeld,3.3.8,m,557.5568000000785,42,nonword
112,1,C,1,Lentiform Loewenfeld,3.3.8,c,765.32150000002,42,nonword
113,1,C,7,Lentiform Loewenfeld,3.3.8,c,610.7549999999464,42,nonword
114,1,M,6,Lentiform Loewenfeld,3.3.8,m,537.3660000000382,42,word
115,1,C,3,Lentiform Loewenfeld,3.3.8,c,588.4681000000564,42,nonword
116,1,M,6,Lentiform Loewenfeld,3.3.8,m,569.5653999999631,42,word
117,1,C,4,Lentiform Loewenfeld,3.3.8,c,578.3193999999785,42,nonword
118,1,M,6,Lentiform Loewenfeld,3.3.8,m,460.0884000000078,42,word
119,1,M,4,Lentiform Loewenfeld,3.3.8,m,609.750800000038,42,word
120,1,M,7,Lentiform Loewenfeld,3.3.8,m,482.34719999996014,42,word
121,1,C,2,Lentiform Loewenfeld,3.3.8,c,500.9162999999826,42,nonword
122,1,M,4,Lentiform Loewenfeld,3.3.8,m,536.6934000000474,42,word
123,1,C,3,Lentiform Loewenfeld,3.3.8,c,783.1489999999758,42,nonword
124,1,M,1,Lentiform Loewenfeld,3.3.8,m,518.2050000000163,42,word
125,1,C,7,Lentiform Loewenfeld,3.3.8,c,615.156500000041,42,nonword
126,1,M,7,Lentiform Loewenfeld,3.3.8,m,595.3099000001093,42,word
127,1,M,7,Lentiform Loewenfeld,3.3.8,m,452.39359999995213,42,word
128,1,C,7,Lentiform Loewenfeld,3.3.8,c,545.0421999999089,42,nonword
129,1,M,5,Lentiform Loewenfeld,3.3.8,m,495.2953000001144,42,word
130,1,M,4,Lentiform Loewenfeld,3.3.8,m,602.099499999953,42,word
131,1,M,7,Lentiform Loewenfeld,3.3.8,m,468.48609999998007,42,word
132,1,C,3,Lentiform Loewenfeld,3.3.8,c,489.46280000009574,42,nonword
133,1,M,4,Lentiform Loewenfeld,3.3.8,m,402.8694999999716,42,word
134,1,C,6,Lentiform Loewenfeld,3.3.8,c,583.3328000000329,42,nonword
135,1,C,7,Lentiform Loewenfeld,3.3.8,c,618.4585000000079,42,nonword
136,1,M,5,Lentiform Loewenfeld,3.3.8,m,469.3904999999795,42,word
137,1,M,3,Lentiform Loewenfeld,3.3.8,m,611.5235000000102,42,word
138,1,M,3,Lentiform Loewenfeld,3.3.8,m,524.2429999999586,42,word
139,0,C,5,Lentiform Loewenfeld,3.3.8,m,786.396699999983,42,nonword
140,1,C,1,Lentiform Loewenfeld,3.3.8,c,642.4574999999604,42,nonword
141,1,M,1,Lentiform Loewenfeld,3.3.8,m,533.1877000000095,42,word
142,1,M,6,Lentiform Loewenfeld,3.3.8,m,454.95530000003055,42,word
143,0,C,4,Lentiform Loewenfeld,3.3.8,m,720.4010999999591,42,nonword
144,1,M,7,Lentiform Loewenfeld,3.3.8,m,570.8424000000232,42,word
145,1,C,3,Lentiform Loewenfeld,3.3.8,c,655.4496000000509,42,nonword
146,1,M,4,Lentiform Loewenfeld,3.3.8,m,476.0376999999862,42,word
147,1,C,6,Lentiform Loewenfeld,3.3.8,c,613.9624999999651,42,nonword
148,1,C,6,Lentiform Loewenfeld,3.3.8,c,632.7318000000087,42,nonword
149,1,M,1,Lentiform Loewenfeld,3.3.8,m,457.3381999999983,42,word
150,1,M,3,Lentiform Loewenfeld,3.3.8,m,468.6510000000126,42,word
151,1,C,5,Lentiform Loewenfeld,3.3.8,c,538.3882000000449,42,nonword
152,1,M,7,Lentiform Loewenfeld,3.3.8,m,387.81589999998687,42,word
153,1,M,5,Lentiform Loewenfeld,3.3.8,m,455.95980000001146,42,word
154,1,M,1,Lentiform Loewenfeld,3.3.8,m,457.70120000001043,42,word
155,1,C,5,Lentiform Loewenfeld,3.3.8,c,559.6775000000489,42,nonword
156,1,C,6,Lentiform Loewenfeld,3.3.8,c,663.0682000000379,42,nonword
157,1,M,2,Lentiform Loewenfeld,3.3.8,m,635.6971999999951,42,word
158,1,M,6,Lentiform Loewenfeld,3.3.8,m,501.96940000000177,42,word
159,1,M,3,Lentiform Loewenfeld,3.3.8,m,445.4181000000099,42,word
160,1,C,2,Lentiform Loewenfeld,3.3.8,c,390.8096999999834,42,nonword
161,1,C,2,Lentiform Loewenfeld,3.3.8,c,601.117200000037,42,nonword
162,1,M,7,Lentiform Loewenfeld,3.3.8,m,539.6340999999666,42,word
163,0,M,6,Lentiform Loewenfeld,3.3.8,c,541.4876000000513,42,word
164,1,M,7,Lentiform Loewenfeld,3.3.8,m,554.5919000000576,42,word
165,1,C,2,Lentiform Loewenfeld,3.3.8,c,628.5726999999606,42,nonword
166,1,M,3,Lentiform Loewenfeld,3.3.8,m,497.8072000000393,42,word
167,1,C,4,Lentiform Loewenfeld,3.3.8,c,479.9660000000149,42,nonword
168,1,M,5,Lentiform Loewenfeld,3.3.8,m,507.3825999999535,42,word
169,1,C,2,Lentiform Loewenfeld,3.3.8,c,468.1478000000352,42,nonword
170,1,M,5,Lentiform Loewenfeld,3.3.8,m,394.25150000001304,42,word
171,1,C,4,Lentiform Loewenfeld,3.3.8,c,532.6964999999618,42,nonword
172,1,C,3,Lentiform Loewenfeld,3.3.8,c,604.3238999999594,42,nonword
173,1,C,2,Lentiform Loewenfeld,3.3.8,c,590.7647000000579,42,nonword
174,1,M,5,Lentiform Loewenfeld,3.3.8,m,398.514499999932,42,word
175,1,M,3,Lentiform Loewenfeld,3.3.8,m,455.117099999974,42,word
176,0,C,4,Lentiform Loewenfeld,3.3.8,m,533.5732999999891,42,nonword
177,1,C,4,Lentiform Loewenfeld,3.3.8,c,541.4939000000013,42,nonword
178,1,M,1,Lentiform Loewenfeld,3.3.8,m,430.42290000000503,42,word
179,0,M,5,Lentiform Loewenfeld,3.3.8,c,491.73379999992903,42,word
180,1,C,6,Lentiform Loewenfeld,3.3.8,c,851.7087000000756,42,nonword
181,1,C,2,Lentiform Loewenfeld,3.3.8,c,606.9334999999264,42,nonword
182,1,M,6,Lentiform Loewenfeld,3.3.8,m,457.69759999995586,42,word
183,1,M,4,Lentiform Loewenfeld,3.3.8,m,467.77780000003986,42,word
184,1,C,3,Lentiform Loewenfeld,3.3.8,c,531.295700000017,42,nonword
185,1,C,7,Lentiform Loewenfeld,3.3.8,c,900.9159999999683,42,nonword
186,1,C,6,Lentiform Loewenfeld,3.3.8,c,566.750900000101,42,nonword
187,1,M,7,Lentiform Loewenfeld,3.3.8,m,555.5119999999879,42,word
188,1,M,2,Lentiform Loewenfeld,3.3.8,m,605.2874000000302,42,word
189,1,M,2,Lentiform Loewenfeld,3.3.8,m,808.7317000000039,42,word
190,1,C,2,Lentiform Loewenfeld,3.3.8,c,477.79510000010487,42,nonword
191,0,C,7,Lentiform Loewenfeld,3.3.8,m,342.2741999999853,42,nonword
192,1,C,3,Lentiform Loewenfeld,3.3.8,c,551.6167000000132,42,nonword
193,1,C,5,Lentiform Loewenfeld,3.3.8,c,518.8483000000706,42,nonword
194,1,M,2,Lentiform Loewenfeld,3.3.8,m,540.7869999998948,42,word
195,1,C,5,Lentiform Loewenfeld,3.3.8,c,548.0650999998907,42,nonword
196,1,M,1,Lentiform Loewenfeld,3.3.8,m,721.501500000013,42,word
197,1,M,1,Lentiform Loewenfeld,3.3.8,m,682.4239999999991,42,word
198,1,C,5,Lentiform Loewenfeld,3.3.8,c,548.2010999999475,42,nonword
199,1,M,5,Lentiform Loewenfeld,3.3.8,m,468.44250000000466,42,word
200,1,M,7,Lentiform Loewenfeld,3.3.8,m,462.5466000000015,42,word
201,1,M,7,Lentiform Loewenfeld,3.3.8,m,439.35229999991134,42,word
202,1,C,3,Lentiform Loewenfeld,3.3.8,c,714.6220999999205,42,nonword
203,1,C,5,Lentiform Loewenfeld,3.3.8,c,522.5212000000756,42,nonword
204,1,C,6,Lentiform Loewenfeld,3.3.8,c,509.7891000000527,42,nonword
205,1,C,7,Lentiform Loewenfeld,3.3.8,c,492.8973999998998,42,nonword
206,1,M,3,Lentiform Loewenfeld,3.3.8,m,494.1624999999767,42,word
207,1,C,7,Lentiform Loewenfeld,3.3.8,c,548.766900000046,42,nonword
208,1,M,4,Lentiform Loewenfeld,3.3.8,m,407.2068999999901,42,word
209,0,C,5,Lentiform Loewenfeld,3.3.8,m,584.8166000000201,42,nonword
210,1,C,2,Lentiform Loewenfeld,3.3.8,c,481.64609999989625,42,nonword
211,0,C,7,Lentiform Loewenfeld,3.3.8,m,453.2492000000784,42,nonword
212,1,C,4,Lentiform Loewenfeld,3.3.8,c,477.8573999999789,42,nonword
213,1,M,1,Lentiform Loewenfeld,3.3.8,m,427.96899999992456,42,word
214,1,C,6,Lentiform Loewenfeld,3.3.8,c,494.80119999998715,42,nonword
215,0,C,6,Lentiform Loewenfeld,3.3.8,m,569.4220000000205,42,nonword
216,1,M,6,Lentiform Loewenfeld,3.3.8,m,527.6620000000112,42,word
217,1,M,5,Lentiform Loewenfeld,3.3.8,m,494.1070000000764,42,word
218,1,C,2,Lentiform Loewenfeld,3.3.8,c,550.0466000000015,42,nonword
219,1,M,6,Lentiform Loewenfeld,3.3.8,m,453.96529999992345,42,word
220,1,C,4,Lentiform Loewenfeld,3.3.8,c,457.75639999995474,42,nonword
221,1,M,2,Lentiform Loewenfeld,3.3.8,m,513.5587999998825,42,word
222,1,C,5,Lentiform Loewenfeld,3.3.8,c,495.1628999999957,42,nonword
223,1,C,1,Lentiform Loewenfeld,3.3.8,c,552.406799999997,42,nonword
224,1,M,1,Lentiform Loewenfeld,3.3.8,m,763.5055000000866,42,word
225,1,M,5,Lentiform Loewenfeld,3.3.8,m,520.1750999999931,42,word
226,1,C,5,Lentiform Loewenfeld,3.3.8,c,692.5566000000108,42,nonword
227,1,C,4,Lentiform Loewenfeld,3.3.8,c,711.3014999999432,42,nonword
228,1,M,4,Lentiform Loewenfeld,3.3.8,m,583.080900000059,42,word
229,0,M,4,Lentiform Loewenfeld,3.3.8,c,572.6825000001118,42,word
230,1,C,4,Lentiform Loewenfeld,3.3.8,c,804.2653999999166,42,nonword
231,1,M,3,Lentiform Loewenfeld,3.3.8,m,607.5115000000224,42,word
232,1,C,4,Lentiform Loewenfeld,3.3.8,c,612.3861000000034,42,nonword
233,1,C,3,Lentiform Loewenfeld,3.3.8,c,552.4660000000149,42,nonword
234,1,M,4,Lentiform Loewenfeld,3.3.8,m,537.5655000000261,42,word
235,1,M,2,Lentiform Loewenfeld,3.3.8,m,515.670999999973,42,word
236,1,C,1,Lentiform Loewenfeld,3.3.8,c,525.9471999999369,42,nonword
237,1,C,5,Lentiform Loewenfeld,3.3.8,c,532.7613000000129,42,nonword
238,1,M,2,Lentiform Loewenfeld,3.3.8,m,529.6184000000358,42,word
239,1,C,1,Lentiform Loewenfeld,3.3.8,c,838.2560000000522,42,nonword
240,1,M,3,Lentiform Loewenfeld,3.3.8,m,473.4967000001343,42,word
241,1,C,6,Lentiform Loewenfeld,3.3.8,c,607.1134000000311,42,nonword
242,1,M,3,Lentiform Loewenfeld,3.3.8,m,495.70570000004955,42,word
243,1,M,4,Lentiform Loewenfeld,3.3.8,m,534.328899999964,42,word
244,1,M,1,Lentiform Loewenfeld,3.3.8,m,453.43530000012834,42,word
245,1,M,3,Lentiform Loewenfeld,3.3.8,m,489.70590000005905,42,word
246,1,C,5,Lentiform Loewenfeld,3.3.8,c,534.4957000000868,42,nonword
247,1,M,5,Lentiform Loewenfeld,3.3.8,m,774.4282000000821,42,word
248,1,M,2,Lentiform Loewenfeld,3.3.8,m,452.6339999999618,42,word
249,1,C,1,Lentiform Loewenfeld,3.3.8,c,497.5794000001624,42,nonword
250,1,C,4,Lentiform Loewenfeld,3.3.8,c,753.3644000000786,42,nonword
251,1,C,1,Lentiform Loewenfeld,3.3.8,c,623.7661999999546,42,nonword
252,0,M,1,Lentiform Loewenfeld,3.3.8,c,787.1896000000415,42,word
253,1,C,4,Lentiform Loewenfeld,3.3.8,c,634.9512000000104,42,nonword
254,1,M,1,Lentiform Loewenfeld,3.3.8,m,568.1750999999931,42,word
255,1,C,6,Lentiform Loewenfeld,3.3.8,c,479.5964999999851,42,nonword
256,1,M,4,Lentiform Loewenfeld,3.3.8,m,538.4762000000337,42,word
257,1,C,7,Lentiform Loewenfeld,3.3.8,c,493.6673999999184,42,nonword
258,1,M,2,Lentiform Loewenfeld,3.3.8,m,504.30060000007506,42,word
259,1,M,6,Lentiform Loewenfeld,3.3.8,m,502.4168999999529,42,word
260,1,C,4,Lentiform Loewenfeld,3.3.8,c,582.8556999999564,42,nonword
261,1,C,1,Lentiform Loewenfeld,3.3.8,c,516.3061000000453,42,nonword
262,1,M,6,Lentiform Loewenfeld,3.3.8,m,534.5792000001529,42,word
263,1,M,7,Lentiform Loewenfeld,3.3.8,m,445.1620000000112,42,word
264,1,C,1,Lentiform Loewenfeld,3.3.8,c,518.9906000000192,42,nonword
265,1,C,5,Lentiform Loewenfeld,3.3.8,c,516.7382999998517,42,nonword
266,1,C,5,Lentiform Loewenfeld,3.3.8,c,438.5217999999877,42,nonword
267,1,C,6,Lentiform Loewenfeld,3.3.8,c,391.4915000000037,42,nonword
268,1,M,6,Lentiform Loewenfeld,3.3.8,m,580.6441999999806,42,word
269,1,M,6,Lentiform Loewenfeld,3.3.8,m,523.2254999999423,42,word
270,1,M,3,Lentiform Loewenfeld,3.3.8,m,465.8847999998834,42,word
271,1,C,7,Lentiform Loewenfeld,3.3.8,c,515.2807999999495,42,nonword
272,1,M,6,Lentiform Loewenfeld,3.3.8,m,475.2204000001075,42,word
273,1,C,7,Lentiform Loewenfeld,3.3.8,c,504.1930000000866,42,nonword
274,1,M,2,Lentiform Loewenfeld,3.3.8,m,493.97239999996964,42,word
275,1,C,3,Lentiform Loewenfeld,3.3.8,c,530.5672999999952,42,nonword
276,1,C,3,Lentiform Loewenfeld,3.3.8,c,545.0062000000617,42,nonword
277,0,C,2,Lentiform Loewenfeld,3.3.8,m,546.9590999999782,42,nonword
278,1,C,3,Lentiform Loewenfeld,3.3.8,c,601.0309000000125,42,nonword
279,1,M,1,Lentiform Loewenfeld,3.3.8,m,462.3110000001034,42,word
280,1,C,2,Lentiform Loewenfeld,3.3.8,c,451.9426000000676,42,nonword
281,1,M,6,Lentiform Loewenfeld,3.3.8,m,401.53370000002906,42,word
282,1,C,3,Lentiform Loewenfeld,3.3.8,c,474.1781000001356,42,nonword
283,0,M,7,Lentiform Loewenfeld,3.3.8,c,1051.6058000000194,42,word
284,1,M,2,Lentiform Loewenfeld,3.3.8,m,586.9862999999896,42,word
285,1,M,2,Lentiform Loewenfeld,3.3.8,m,498.22099999990314,42,word
286,1,C,4,Lentiform Loewenfeld,3.3.8,c,555.0244999999413,42,nonword
287,1,C,1,Lentiform Loewenfeld,3.3.8,c,651.6283999999287,42,nonword
288,0,C,3,Lentiform Loewenfeld,3.3.8,m,483.7251999999862,42,nonword
289,1,M,7,Lentiform Loewenfeld,3.3.8,m,562.6628999999957,42,word
290,1,M,1,Lentiform Loewenfeld,3.3.8,m,487.3945000000531,42,word
291,1,C,7,Lentiform Loewenfeld,3.3.8,c,529.3928000000305,42,nonword
292,1,M,3,Lentiform Loewenfeld,3.3.8,m,897.3133999999845,42,word
293,1,C,4,Lentiform Loewenfeld,3.3.8,c,483.8469000000041,42,nonword
294,1,M,6,Lentiform Loewenfeld,3.3.8,m,498.26909999991767,42,word
295,1,C,6,Lentiform Loewenfeld,3.3.8,c,562.5579999999609,42,nonword
296,1,M,3,Lentiform Loewenfeld,3.3.8,m,635.4744000000646,42,word
297,1,C,1,Lentiform Loewenfeld,3.3.8,c,655.733799999929,42,nonword
298,1,C,4,Lentiform Loewenfeld,3.3.8,c,631.1561999999685,42,nonword
299,1,M,4,Lentiform Loewenfeld,3.3.8,m,503.73849999997765,42,word
300,1,M,2,Lentiform Loewenfeld,3.3.8,m,565.189800000051,42,word
301,1,M,6,Lentiform Loewenfeld,3.3.8,m,496.64180000009947,42,word
302,1,M,7,Lentiform Loewenfeld,3.3.8,m,434.2870999999577,42,word
303,1,C,1,Lentiform Loewenfeld,3.3.8,c,608.9392999999691,42,nonword
304,0,C,3,Lentiform Loewenfeld,3.3.8,m,612.8468000000576,42,nonword
305,1,M,1,Lentiform Loewenfeld,3.3.8,m,519.6152000000002,42,word
306,1,C,6,Lentiform Loewenfeld,3.3.8,c,874.0661000000546,42,nonword
307,1,C,3,Lentiform Loewenfeld,3.3.8,c,1034.2747000000672,42,nonword
308,1,M,2,Lentiform Loewenfeld,3.3.8,m,518.1428999998607,42,word
309,1,C,3,Lentiform Loewenfeld,3.3.8,c,461.94880000001285,42,nonword
310,1,M,6,Lentiform Loewenfeld,3.3.8,m,483.8448999999091,42,word
311,1,C,5,Lentiform Loewenfeld,3.3.8,c,491.9486000000033,42,nonword
312,0,M,6,Lentiform Loewenfeld,3.3.8,c,609.2232000000076,42,word
313,0,C,5,Lentiform Loewenfeld,3.3.8,m,550.1581000000006,42,nonword
314,1,C,6,Lentiform Loewenfeld,3.3.8,c,741.0977999999886,42,nonword
315,1,C,2,Lentiform Loewenfeld,3.3.8,c,912.1818000000203,42,nonword
316,1,M,1,Lentiform Loewenfeld,3.3.8,m,509.60370000009425,42,word
317,1,M,5,Lentiform Loewenfeld,3.3.8,m,447.5095000000438,42,word
318,1,C,6,Lentiform Loewenfeld,3.3.8,c,600.6435999999521,42,nonword
319,1,C,7,Lentiform Loewenfeld,3.3.8,c,617.7570000000997,42,nonword
320,1,M,3,Lentiform Loewenfeld,3.3.8,m,443.53940000000875,42,word
321,1,C,3,Lentiform Loewenfeld,3.3.8,c,467.2912999999244,42,nonword
322,1,M,6,Lentiform Loewenfeld,3.3.8,m,482.7725000001956,42,word
323,1,C,3,Lentiform Loewenfeld,3.3.8,c,484.4851999999956,42,nonword
324,1,M,5,Lentiform Loewenfeld,3.3.8,m,510.64119999995455,42,word
325,1,M,2,Lentiform Loewenfeld,3.3.8,m,552.7670999999391,42,word
326,1,C,7,Lentiform Loewenfeld,3.3.8,c,596.3661000002176,42,nonword
327,1,M,5,Lentiform Loewenfeld,3.3.8,m,420.105399999884,42,word
328,1,C,5,Lentiform Loewenfeld,3.3.8,c,523.7427000001771,42,nonword
329,1,M,1,Lentiform Loewenfeld,3.3.8,m,547.0596000001533,42,word
330,1,C,5,Lentiform Loewenfeld,3.3.8,c,705.3848000002326,42,nonword
331,1,M,7,Lentiform Loewenfeld,3.3.8,m,369.2387999998173,42,word
332,1,C,6,Lentiform Loewenfeld,3.3.8,c,429.346000000136,42,nonword
333,1,M,3,Lentiform Loewenfeld,3.3.8,m,465.11939999996684,42,word
334,1,C,6,Lentiform Loewenfeld,3.3.8,c,523.8967999999877,42,nonword
335,1,M,4,Lentiform Loewenfeld,3.3.8,m,470.52900000009686,42,word
336,1,C,4,Lentiform Loewenfeld,3.3.8,c,526.9945999999763,42,nonword
337,1,M,6,Lentiform Loewenfeld,3.3.8,m,408.9163999998709,42,word
338,1,C,2,Lentiform Loewenfeld,3.3.8,c,495.9493000000948,42,nonword
339,1,M,2,Lentiform Loewenfeld,3.3.8,m,437.86510000005364,42,word
340,1,C,7,Lentiform Loewenfeld,3.3.8,c,560.450399999856,42,nonword
341,1,M,1,Lentiform Loewenfeld,3.3.8,m,506.5667999999132,42,word
342,1,M,3,Lentiform Loewenfeld,3.3.8,m,577.71809999994,42,word
343,1,C,2,Lentiform Loewenfeld,3.3.8,c,484.96979999996256,42,nonword
344,1,C,4,Lentiform Loewenfeld,3.3.8,c,693.2593999998644,42,nonword
345,1,C,2,Lentiform Loewenfeld,3.3.8,c,560.3554999999469,42,nonword
346,0,C,1,Lentiform Loewenfeld,3.3.8,m,501.81609999993816,42,nonword
347,1,M,4,Lentiform Loewenfeld,3.3.8,m,601.5481999999611,42,word
348,1,C,5,Lentiform Loewenfeld,3.3.8,c,582.6526000000304,42,nonword
349,1,C,5,Lentiform Loewenfeld,3.3.8,c,549.7332999999635,42,nonword
350,1,M,5,Lentiform Loewenfeld,3.3.8,m,681.6800999998813,42,word
351,1,C,3,Lentiform Loewenfeld,3.3.8,c,515.1044000000693,42,nonword
352,1,C,5,Lentiform Loewenfeld,3.3.8,c,464.7042000000365,42,nonword
353,1,M,2,Lentiform Loewenfeld,3.3.8,m,479.8223999999464,42,word
354,1,M,2,Lentiform Loewenfeld,3.3.8,m,579.0535000000382,42,word
355,1,M,6,Lentiform Loewenfeld,3.3.8,m,752.9711000001989,42,word
356,1,M,7,Lentiform Loewenfeld,3.3.8,m,578.4139000001596,42,word
357,1,C,6,Lentiform Loewenfeld,3.3.8,c,552.5046000002185,42,nonword
358,1,C,3,Lentiform Loewenfeld,3.3.8,c,579.9263000000501,42,nonword
359,1,M,2,Lentiform Loewenfeld,3.3.8,m,441.5590000000084,42,word
360,1,C,2,Lentiform Loewenfeld,3.3.8,c,475.3701000001747,42,nonword
361,1,M,5,Lentiform Loewenfeld,3.3.8,m,625.1161999999313,42,word
362,1,M,3,Lentiform Loewenfeld,3.3.8,m,461.4976000000024,42,word
363,1,M,5,Lentiform Loewenfeld,3.3.8,m,413.28610000014305,42,word
364,1,C,6,Lentiform Loewenfeld,3.3.8,c,430.96629999997094,42,nonword
365,0,M,1,Lentiform Loewenfeld,3.3.8,c,508.368699999759,42,word
366,1,C,7,Lentiform Loewenfeld,3.3.8,c,1028.4752999999328,42,nonword
367,1,C,4,Lentiform Loewenfeld,3.3.8,c,510.8520000000717,42,nonword
368,1,C,2,Lentiform Loewenfeld,3.3.8,c,686.9430999999167,42,nonword
369,1,C,7,Lentiform Loewenfeld,3.3.8,c,545.2147000000114,42,nonword
370,1,M,1,Lentiform Loewenfeld,3.3.8,m,527.6293999999762,42,word
371,1,M,7,Lentiform Loewenfeld,3.3.8,m,567.5827999999747,42,word
372,1,M,3,Lentiform Loewenfeld,3.3.8,m,689.016799999983,42,word
373,1,C,1,Lentiform Loewenfeld,3.3.8,c,548.3068999998504,42,nonword
374,0,C,1,Lentiform Loewenfeld,3.3.8,m,567.7201999999816,42,nonword
375,1,C,5,Lentiform Loewenfeld,3.3.8,c,653.9912000002805,42,nonword
376,1,M,3,Lentiform Loewenfeld,3.3.8,m,479.9022999999579,42,word
377,1,M,1,Lentiform Loewenfeld,3.3.8,m,544.6974000000628,42,word
378,1,M,7,Lentiform Loewenfeld,3.3.8,m,482.3064000001177,42,word
379,1,C,2,Lentiform Loewenfeld,3.3.8,c,503.2685999998357,42,nonword
380,1,M,3,Lentiform Loewenfeld,3.3.8,m,753.8834000000497,42,word
381,1,M,6,Lentiform Loewenfeld,3.3.8,m,498.7595000000438,42,word
382,1,M,2,Lentiform Loewenfeld,3.3.8,m,503.09239999984857,42,word
383,1,C,4,Lentiform Loewenfeld,3.3.8,c,581.3588000000454,42,nonword
384,1,C,2,Lentiform Loewenfeld,3.3.8,c,642.1609000000171,42,nonword
385,1,M,3,Lentiform Loewenfeld,3.3.8,m,436.7461999999359,42,word
386,1,M,5,Lentiform Loewenfeld,3.3.8,m,446.84640000003856,42,word
387,1,M,1,Lentiform Loewenfeld,3.3.8,m,386.1194999999134,42,word
388,1,C,2,Lentiform Loewenfeld,3.3.8,c,771.4362000001129,42,nonword
389,1,C,4,Lentiform Loewenfeld,3.3.8,c,689.3939000000246,42,nonword
390,1,M,5,Lentiform Loewenfeld,3.3.8,m,489.5969000000041,42,word
391,1,C,6,Lentiform Loewenfeld,3.3.8,c,476.2206999999471,42,nonword
392,0,C,4,Lentiform Loewenfeld,3.3.8,m,395.97709999990184,42,nonword
393,1,C,1,Lentiform Loewenfeld,3.3.8,c,581.063300000038,42,nonword
394,1,C,3,Lentiform Loewenfeld,3.3.8,c,756.8336000000127,42,nonword
395,1,M,3,Lentiform Loewenfeld,3.3.8,m,525.4298999999883,42,word
396,1,M,1,Lentiform Loewenfeld,3.3.8,m,470.2127999999793,42,word
397,1,C,2,Lentiform Loewenfeld,3.3.8,c,494.68009999999776,42,nonword
398,1,C,1,Lentiform Loewenfeld,3.3.8,c,546.4308000002056,42,nonword
399,1,M,1,Lentiform Loewenfeld,3.3.8,m,877.0570999998599,42,word
400,1,C,3,Lentiform Loewenfeld,3.3.8,c,535.9600999999093,42,nonword
401,1,C,5,Lentiform Loewenfeld,3.3.8,c,688.7238000001526,42,nonword
402,1,C,6,Lentiform Loewenfeld,3.3.8,c,660.2910000000848,42,nonword
403,1,C,3,Lentiform Loewenfeld,3.3.8,c,568.8969999999972,42,nonword
404,1,M,5,Lentiform Loewenfeld,3.3.8,m,517.8606999999611,42,word
405,1,M,4,Lentiform Loewenfeld,3.3.8,m,451.6086999998661,42,word
406,1,M,4,Lentiform Loewenfeld,3.3.8,m,435.20309999992605,42,word
407,1,C,7,Lentiform Loewenfeld,3.3.8,c,456.1778000001796,42,nonword
408,1,M,6,Lentiform Loewenfeld,3.3.8,m,381.9922000000952,42,word
409,1,C,1,Lentiform Loewenfeld,3.3.8,c,486.9438000000082,42,nonword
410,1,C,7,Lentiform Loewenfeld,3.3.8,c,608.2261999999173,42,nonword
411,1,C,4,Lentiform Loewenfeld,3.3.8,c,543.1634000000777,42,nonword
412,1,C,2,Lentiform Loewenfeld,3.3.8,c,285.60020000010263,42,nonword
413,1,M,4,Lentiform Loewenfeld,3.3.8,m,373.2222999999067,42,word
414,1,C,7,Lentiform Loewenfeld,3.3.8,c,422.1598999998532,42,nonword
415,1,M,4,Lentiform Loewenfeld,3.3.8,m,542.264199999976,42,word
416,1,M,5,Lentiform Loewenfeld,3.3.8,m,519.5572999999858,42,word
417,1,M,1,Lentiform Loewenfeld,3.3.8,m,659.9947999999858,42,word
418,1,M,7,Lentiform Loewenfeld,3.3.8,m,437.2234999999637,42,word
419,1,C,1,Lentiform Loewenfeld,3.3.8,c,542.4942000000738,42,nonword
