Unnamed: 0,correct_keyboard_response_1,correct_response,flanker_condition,opensesame_codename,opensesame_version,response_keyboard_response_1,response_time_keyboard_response_1,subject_nr,target_type
0,0,C,6,Lentiform Loewenfeld,3.3.8,m,535.8969000000216,26,nonword
1,1,C,6,Lentiform Loewenfeld,3.3.8,c,584.8440999999584,26,nonword
2,1,C,2,Lentiform Loewenfeld,3.3.8,c,448.78959999996005,26,nonword
3,1,M,7,Lentiform Loewenfeld,3.3.8,m,458.8806000000332,26,word
4,1,C,4,Lentiform Loewenfeld,3.3.8,c,460.5082000000112,26,nonword
5,1,C,3,Lentiform Loewenfeld,3.3.8,c,491.63469999999506,26,nonword
6,1,M,3,Lentiform Loewenfeld,3.3.8,m,492.5576000000001,26,word
7,0,M,6,Lentiform Loewenfeld,3.3.8,c,515.7070999999996,26,word
8,1,M,5,Lentiform Loewenfeld,3.3.8,m,493.96710000000894,26,word
9,0,M,4,Lentiform Loewenfeld,3.3.8,c,568.2427999999782,26,word
10,1,C,7,Lentiform Loewenfeld,3.3.8,c,640.4906999999366,26,nonword
11,1,C,7,Lentiform Loewenfeld,3.3.8,c,609.083799999964,26,nonword
12,0,C,4,Lentiform Loewenfeld,3.3.8,m,666.5157999999647,26,nonword
13,1,M,6,Lentiform Loewenfeld,3.3.8,m,575.1309000000183,26,word
14,1,C,1,Lentiform Loewenfeld,3.3.8,c,583.8977000000014,26,nonword
15,1,C,5,Lentiform Loewenfeld,3.3.8,c,786.9819000000134,26,nonword
16,1,C,2,Lentiform Loewenfeld,3.3.8,c,658.567800000048,26,nonword
17,1,C,4,Lentiform Loewenfeld,3.3.8,c,528.3257999999623,26,nonword
18,1,M,5,Lentiform Loewenfeld,3.3.8,m,614.1269999999786,26,word
19,1,M,3,Lentiform Loewenfeld,3.3.8,m,560.8920000000217,26,word
20,1,M,3,Lentiform Loewenfeld,3.3.8,m,513.975999999966,26,word
21,1,M,1,Lentiform Loewenfeld,3.3.8,m,549.6215000000375,26,word
22,1,C,3,Lentiform Loewenfeld,3.3.8,c,559.83679999999,26,nonword
23,1,M,5,Lentiform Loewenfeld,3.3.8,m,497.1178000000364,26,word
24,1,C,6,Lentiform Loewenfeld,3.3.8,c,661.7412000000186,26,nonword
25,0,C,4,Lentiform Loewenfeld,3.3.8,m,553.3112000000256,26,nonword
26,1,M,1,Lentiform Loewenfeld,3.3.8,m,518.4163000000408,26,word
27,1,M,3,Lentiform Loewenfeld,3.3.8,m,676.8755999999994,26,word
28,1,C,7,Lentiform Loewenfeld,3.3.8,c,554.2776999999478,26,nonword
29,1,C,4,Lentiform Loewenfeld,3.3.8,c,558.0813999999955,26,nonword
30,1,M,1,Lentiform Loewenfeld,3.3.8,m,495.1439000000246,26,word
31,1,M,4,Lentiform Loewenfeld,3.3.8,m,534.9679999999935,26,word
32,1,C,1,Lentiform Loewenfeld,3.3.8,c,551.2309999999998,26,nonword
33,1,C,1,Lentiform Loewenfeld,3.3.8,c,529.489099999977,26,nonword
34,1,M,2,Lentiform Loewenfeld,3.3.8,m,613.9475000000384,26,word
35,1,C,1,Lentiform Loewenfeld,3.3.8,c,495.6694000000134,26,nonword
36,1,C,4,Lentiform Loewenfeld,3.3.8,c,639.4551999999967,26,nonword
37,1,C,5,Lentiform Loewenfeld,3.3.8,c,562.5618999999424,26,nonword
38,1,C,1,Lentiform Loewenfeld,3.3.8,c,524.0215999999782,26,nonword
39,1,M,4,Lentiform Loewenfeld,3.3.8,m,568.9554000000062,26,word
40,1,C,4,Lentiform Loewenfeld,3.3.8,c,581.8784999999625,26,nonword
41,1,C,7,Lentiform Loewenfeld,3.3.8,c,472.4986000000208,26,nonword
42,1,M,7,Lentiform Loewenfeld,3.3.8,m,536.2593999999517,26,word
43,1,C,6,Lentiform Loewenfeld,3.3.8,c,586.8722999999882,26,nonword
44,1,C,2,Lentiform Loewenfeld,3.3.8,c,519.6170999999449,26,nonword
45,1,C,4,Lentiform Loewenfeld,3.3.8,c,459.9192999999796,26,nonword
46,1,C,1,Lentiform Loewenfeld,3.3.8,c,683.5482000000484,26,nonword
47,1,M,6,Lentiform Loewenfeld,3.3.8,m,717.4533000000229,26,word
48,0,M,5,Lentiform Loewenfeld,3.3.8,c,530.0874000000476,26,word
49,1,M,1,Lentiform Loewenfeld,3.3.8,m,492.7188000000024,26,word
50,1,C,7,Lentiform Loewenfeld,3.3.8,c,559.6262999999744,26,nonword
51,1,C,1,Lentiform Loewenfeld,3.3.8,c,764.4307000000263,26,nonword
52,1,M,4,Lentiform Loewenfeld,3.3.8,m,524.6901000000071,26,word
53,1,C,3,Lentiform Loewenfeld,3.3.8,c,729.6019999999553,26,nonword
54,1,C,6,Lentiform Loewenfeld,3.3.8,c,539.6916999999667,26,nonword
55,1,C,5,Lentiform Loewenfeld,3.3.8,c,564.9882000000798,26,nonword
56,1,M,1,Lentiform Loewenfeld,3.3.8,m,525.2200000000303,26,word
57,1,C,5,Lentiform Loewenfeld,3.3.8,c,617.6867000000202,26,nonword
58,1,C,1,Lentiform Loewenfeld,3.3.8,c,492.1201000000583,26,nonword
59,0,C,3,Lentiform Loewenfeld,3.3.8,m,514.5862000000197,26,nonword
60,1,C,1,Lentiform Loewenfeld,3.3.8,c,647.8388000000268,26,nonword
61,1,M,6,Lentiform Loewenfeld,3.3.8,m,614.256800000032,26,word
62,1,M,3,Lentiform Loewenfeld,3.3.8,m,818.3877999999095,26,word
63,1,M,4,Lentiform Loewenfeld,3.3.8,m,517.7509999999893,26,word
64,1,M,6,Lentiform Loewenfeld,3.3.8,m,488.07850000000326,26,word
65,0,C,5,Lentiform Loewenfeld,3.3.8,m,541.8531999999541,26,nonword
66,1,C,4,Lentiform Loewenfeld,3.3.8,c,670.8289999999688,26,nonword
67,1,M,7,Lentiform Loewenfeld,3.3.8,m,635.2310999999754,26,word
68,1,C,5,Lentiform Loewenfeld,3.3.8,c,630.6926000000094,26,nonword
69,0,M,4,Lentiform Loewenfeld,3.3.8,c,579.0033000000403,26,word
70,1,M,4,Lentiform Loewenfeld,3.3.8,m,575.3743000000832,26,word
71,1,M,7,Lentiform Loewenfeld,3.3.8,m,600.976100000029,26,word
72,1,M,5,Lentiform Loewenfeld,3.3.8,m,523.7406999999657,26,word
73,1,C,5,Lentiform Loewenfeld,3.3.8,c,572.8267999999807,26,nonword
74,1,C,2,Lentiform Loewenfeld,3.3.8,c,630.1006000000052,26,nonword
75,1,C,1,Lentiform Loewenfeld,3.3.8,c,739.858799999929,26,nonword
76,1,C,6,Lentiform Loewenfeld,3.3.8,c,725.4495999999344,26,nonword
77,1,M,1,Lentiform Loewenfeld,3.3.8,m,669.1751000000513,26,word
78,1,C,7,Lentiform Loewenfeld,3.3.8,c,646.9447999999975,26,nonword
79,1,M,6,Lentiform Loewenfeld,3.3.8,m,675.8785999999964,26,word
80,1,M,1,Lentiform Loewenfeld,3.3.8,m,613.938199999975,26,word
81,1,M,3,Lentiform Loewenfeld,3.3.8,m,521.0703999999678,26,word
82,1,C,2,Lentiform Loewenfeld,3.3.8,c,582.5315999999875,26,nonword
83,1,M,1,Lentiform Loewenfeld,3.3.8,m,662.1246999999858,26,word
84,1,C,7,Lentiform Loewenfeld,3.3.8,c,641.7356000000145,26,nonword
85,1,M,1,Lentiform Loewenfeld,3.3.8,m,606.9631999999983,26,word
86,1,C,5,Lentiform Loewenfeld,3.3.8,c,597.6296000000439,26,nonword
87,1,M,3,Lentiform Loewenfeld,3.3.8,m,523.5321000000695,26,word
88,1,M,5,Lentiform Loewenfeld,3.3.8,m,532.477499999979,26,word
89,1,M,2,Lentiform Loewenfeld,3.3.8,m,562.2425999999978,26,word
90,1,M,6,Lentiform Loewenfeld,3.3.8,m,517.6052999999956,26,word
91,1,C,7,Lentiform Loewenfeld,3.3.8,c,536.1396999999997,26,nonword
92,1,C,7,Lentiform Loewenfeld,3.3.8,c,579.0293999999994,26,nonword
93,1,C,7,Lentiform Loewenfeld,3.3.8,c,659.6015999999945,26,nonword
94,1,C,1,Lentiform Loewenfeld,3.3.8,c,738.8626000000513,26,nonword
95,1,M,5,Lentiform Loewenfeld,3.3.8,m,591.5834000000614,26,word
96,1,C,5,Lentiform Loewenfeld,3.3.8,c,530.9125999999815,26,nonword
97,1,M,3,Lentiform Loewenfeld,3.3.8,m,437.2809000000125,26,word
98,1,M,5,Lentiform Loewenfeld,3.3.8,m,670.7582999999868,26,word
99,1,C,3,Lentiform Loewenfeld,3.3.8,c,684.414999999979,26,nonword
100,1,M,5,Lentiform Loewenfeld,3.3.8,m,661.2893000000622,26,word
101,1,C,1,Lentiform Loewenfeld,3.3.8,c,596.5193000000436,26,nonword
102,0,M,1,Lentiform Loewenfeld,3.3.8,c,541.4451000000699,26,word
103,1,C,7,Lentiform Loewenfeld,3.3.8,c,621.8971999999485,26,nonword
104,1,C,6,Lentiform Loewenfeld,3.3.8,c,611.2287999999826,26,nonword
105,1,M,4,Lentiform Loewenfeld,3.3.8,m,493.258199999982,26,word
106,1,C,7,Lentiform Loewenfeld,3.3.8,c,650.8819000000367,26,nonword
107,0,M,3,Lentiform Loewenfeld,3.3.8,c,583.2915999999386,26,word
108,1,M,2,Lentiform Loewenfeld,3.3.8,m,642.903699999908,26,word
109,1,C,7,Lentiform Loewenfeld,3.3.8,c,686.0041000000201,26,nonword
110,1,C,6,Lentiform Loewenfeld,3.3.8,c,736.5793999999878,26,nonword
111,1,M,7,Lentiform Loewenfeld,3.3.8,m,602.5011999998824,26,word
112,1,M,1,Lentiform Loewenfeld,3.3.8,m,607.2583999999915,26,word
113,1,M,2,Lentiform Loewenfeld,3.3.8,m,718.5008999999845,26,word
114,1,C,1,Lentiform Loewenfeld,3.3.8,c,534.2545999999857,26,nonword
115,1,C,6,Lentiform Loewenfeld,3.3.8,c,490.8607000000193,26,nonword
116,1,C,2,Lentiform Loewenfeld,3.3.8,c,629.1324999999488,26,nonword
117,1,C,4,Lentiform Loewenfeld,3.3.8,c,605.8980000000447,26,nonword
118,1,M,6,Lentiform Loewenfeld,3.3.8,m,584.9652999999234,26,word
119,1,M,7,Lentiform Loewenfeld,3.3.8,m,561.2061000000685,26,word
120,1,C,7,Lentiform Loewenfeld,3.3.8,c,641.6615000001038,26,nonword
121,1,M,2,Lentiform Loewenfeld,3.3.8,m,649.3952999999165,26,word
122,1,C,6,Lentiform Loewenfeld,3.3.8,c,605.3004000000656,26,nonword
123,1,M,2,Lentiform Loewenfeld,3.3.8,m,509.24360000004526,26,word
124,1,M,1,Lentiform Loewenfeld,3.3.8,m,801.2141999999876,26,word
125,1,C,3,Lentiform Loewenfeld,3.3.8,c,670.7572999999975,26,nonword
126,1,M,5,Lentiform Loewenfeld,3.3.8,m,591.4991999999038,26,word
127,1,M,7,Lentiform Loewenfeld,3.3.8,m,576.7690999999759,26,word
128,1,C,4,Lentiform Loewenfeld,3.3.8,c,804.0487999999896,26,nonword
129,1,M,3,Lentiform Loewenfeld,3.3.8,m,542.0815999999759,26,word
130,1,M,1,Lentiform Loewenfeld,3.3.8,m,510.3918999999296,26,word
131,1,M,6,Lentiform Loewenfeld,3.3.8,m,490.4861000000383,26,word
132,1,M,1,Lentiform Loewenfeld,3.3.8,m,520.9062000000267,26,word
133,1,C,2,Lentiform Loewenfeld,3.3.8,c,566.3885000000591,26,nonword
134,1,C,6,Lentiform Loewenfeld,3.3.8,c,540.2229000000516,26,nonword
135,0,M,5,Lentiform Loewenfeld,3.3.8,c,978.6314000000712,26,word
136,1,M,2,Lentiform Loewenfeld,3.3.8,m,750.3090999999549,26,word
137,1,M,5,Lentiform Loewenfeld,3.3.8,m,657.0653000000166,26,word
138,1,M,2,Lentiform Loewenfeld,3.3.8,m,546.8199999998906,26,word
139,1,C,4,Lentiform Loewenfeld,3.3.8,c,678.7578000000212,26,nonword
140,1,C,1,Lentiform Loewenfeld,3.3.8,c,583.3688000000548,26,nonword
141,1,C,6,Lentiform Loewenfeld,3.3.8,c,812.1324999999488,26,nonword
142,1,C,1,Lentiform Loewenfeld,3.3.8,c,561.9015000000363,26,nonword
143,0,M,6,Lentiform Loewenfeld,3.3.8,c,524.6569000000018,26,word
144,1,M,2,Lentiform Loewenfeld,3.3.8,m,546.7415000000619,26,word
145,1,M,6,Lentiform Loewenfeld,3.3.8,m,458.85189999989234,26,word
146,1,C,4,Lentiform Loewenfeld,3.3.8,c,580.1324000000022,26,nonword
147,1,M,5,Lentiform Loewenfeld,3.3.8,m,574.5594999999739,26,word
148,1,M,5,Lentiform Loewenfeld,3.3.8,m,522.1541999999899,26,word
149,1,M,7,Lentiform Loewenfeld,3.3.8,m,478.07730000000447,26,word
150,1,C,5,Lentiform Loewenfeld,3.3.8,c,517.5240999999805,26,nonword
151,1,M,2,Lentiform Loewenfeld,3.3.8,m,503.46229999989737,26,word
152,1,M,7,Lentiform Loewenfeld,3.3.8,m,526.2630999999819,26,word
153,1,M,7,Lentiform Loewenfeld,3.3.8,m,487.8059999999823,26,word
154,1,C,5,Lentiform Loewenfeld,3.3.8,c,574.3864999999641,26,nonword
155,1,C,2,Lentiform Loewenfeld,3.3.8,c,635.1880000000237,26,nonword
156,1,M,6,Lentiform Loewenfeld,3.3.8,m,538.1481000000495,26,word
157,1,M,4,Lentiform Loewenfeld,3.3.8,m,508.5718999999808,26,word
158,1,M,6,Lentiform Loewenfeld,3.3.8,m,514.3703999999561,26,word
159,0,C,3,Lentiform Loewenfeld,3.3.8,m,475.9965000001248,26,nonword
160,1,C,3,Lentiform Loewenfeld,3.3.8,c,587.5801999999676,26,nonword
161,1,C,4,Lentiform Loewenfeld,3.3.8,c,590.3302999999141,26,nonword
162,0,M,4,Lentiform Loewenfeld,3.3.8,c,549.0420000000158,26,word
163,1,C,6,Lentiform Loewenfeld,3.3.8,c,652.2222999999649,26,nonword
164,1,M,3,Lentiform Loewenfeld,3.3.8,m,726.9818000000087,26,word
165,1,M,1,Lentiform Loewenfeld,3.3.8,m,554.875800000038,26,word
166,1,C,3,Lentiform Loewenfeld,3.3.8,c,645.183100000082,26,nonword
167,1,C,3,Lentiform Loewenfeld,3.3.8,c,545.4247999999789,26,nonword
168,0,M,7,Lentiform Loewenfeld,3.3.8,c,509.53940000000875,26,word
169,1,C,3,Lentiform Loewenfeld,3.3.8,c,795.9878000000608,26,nonword
170,0,M,4,Lentiform Loewenfeld,3.3.8,c,650.0933000000077,26,word
171,1,C,2,Lentiform Loewenfeld,3.3.8,c,657.656500000041,26,nonword
172,1,C,2,Lentiform Loewenfeld,3.3.8,c,951.2484000000986,26,nonword
173,1,M,2,Lentiform Loewenfeld,3.3.8,m,373.446900000039,26,word
174,0,C,7,Lentiform Loewenfeld,3.3.8,m,588.5824000000721,26,nonword
175,1,C,4,Lentiform Loewenfeld,3.3.8,c,546.5509000000893,26,nonword
176,1,M,7,Lentiform Loewenfeld,3.3.8,m,668.6360000000568,26,word
177,1,C,5,Lentiform Loewenfeld,3.3.8,c,557.3980999999912,26,nonword
178,0,M,4,Lentiform Loewenfeld,3.3.8,c,619.0411000000313,26,word
179,1,M,3,Lentiform Loewenfeld,3.3.8,m,711.1002000000444,26,word
180,1,M,3,Lentiform Loewenfeld,3.3.8,m,641.3606000000145,26,word
181,1,M,4,Lentiform Loewenfeld,3.3.8,m,544.4607999999425,26,word
182,1,C,6,Lentiform Loewenfeld,3.3.8,c,560.4142999999458,26,nonword
183,1,M,3,Lentiform Loewenfeld,3.3.8,m,796.7776999998605,26,word
184,1,M,7,Lentiform Loewenfeld,3.3.8,m,552.7114999999758,26,word
185,0,M,3,Lentiform Loewenfeld,3.3.8,c,742.9829000000609,26,word
186,1,C,6,Lentiform Loewenfeld,3.3.8,c,862.0844999999972,26,nonword
187,1,M,7,Lentiform Loewenfeld,3.3.8,m,605.1479999999283,26,word
188,1,M,3,Lentiform Loewenfeld,3.3.8,m,529.0692999999737,26,word
189,1,M,1,Lentiform Loewenfeld,3.3.8,m,416.1613999999827,26,word
190,1,M,6,Lentiform Loewenfeld,3.3.8,m,496.78069999988656,26,word
191,1,C,2,Lentiform Loewenfeld,3.3.8,c,632.5868000000482,26,nonword
192,1,M,5,Lentiform Loewenfeld,3.3.8,m,592.0048999999417,26,word
193,1,M,1,Lentiform Loewenfeld,3.3.8,m,505.48140000004787,26,word
194,1,C,3,Lentiform Loewenfeld,3.3.8,c,776.24729999993,26,nonword
195,1,C,4,Lentiform Loewenfeld,3.3.8,c,989.0001999998931,26,nonword
196,1,M,2,Lentiform Loewenfeld,3.3.8,m,564.2908000000753,26,word
197,1,C,7,Lentiform Loewenfeld,3.3.8,c,714.6784999998054,26,nonword
198,1,M,3,Lentiform Loewenfeld,3.3.8,m,614.9403000000166,26,word
199,0,C,2,Lentiform Loewenfeld,3.3.8,m,622.560199999949,26,nonword
200,0,C,2,Lentiform Loewenfeld,3.3.8,m,701.8231999999844,26,nonword
201,1,C,2,Lentiform Loewenfeld,3.3.8,c,653.7111000000732,26,nonword
202,1,M,3,Lentiform Loewenfeld,3.3.8,m,589.1352999999654,26,word
203,1,C,3,Lentiform Loewenfeld,3.3.8,c,778.2049000000115,26,nonword
204,0,M,6,Lentiform Loewenfeld,3.3.8,c,757.9820000000764,26,word
205,1,C,7,Lentiform Loewenfeld,3.3.8,c,730.2235999999102,26,nonword
206,0,C,7,Lentiform Loewenfeld,3.3.8,m,771.156799999997,26,nonword
207,1,M,5,Lentiform Loewenfeld,3.3.8,m,667.4104000000516,26,word
208,1,C,6,Lentiform Loewenfeld,3.3.8,c,546.3102000000654,26,nonword
209,1,M,4,Lentiform Loewenfeld,3.3.8,m,729.108099999954,26,word
210,1,M,1,Lentiform Loewenfeld,3.3.8,m,600.091199999908,26,word
211,0,C,5,Lentiform Loewenfeld,3.3.8,m,400.7229000000516,26,nonword
212,1,C,6,Lentiform Loewenfeld,3.3.8,c,623.0242999999318,26,nonword
213,1,C,5,Lentiform Loewenfeld,3.3.8,c,519.4248000000371,26,nonword
214,1,C,2,Lentiform Loewenfeld,3.3.8,c,506.50929999991786,26,nonword
215,1,M,4,Lentiform Loewenfeld,3.3.8,m,574.4431000000332,26,word
216,1,M,3,Lentiform Loewenfeld,3.3.8,m,505.3855999999214,26,word
217,0,M,6,Lentiform Loewenfeld,3.3.8,c,531.3784000000451,26,word
218,1,C,7,Lentiform Loewenfeld,3.3.8,c,578.9795999999624,26,nonword
219,1,C,1,Lentiform Loewenfeld,3.3.8,c,527.0839999999152,26,nonword
220,1,M,5,Lentiform Loewenfeld,3.3.8,m,613.7469999999739,26,word
221,1,C,2,Lentiform Loewenfeld,3.3.8,c,519.8131999998586,26,nonword
222,1,M,7,Lentiform Loewenfeld,3.3.8,m,574.9035999999614,26,word
223,1,C,3,Lentiform Loewenfeld,3.3.8,c,535.1851000000024,26,nonword
224,1,C,6,Lentiform Loewenfeld,3.3.8,c,537.4407000000356,26,nonword
225,1,C,3,Lentiform Loewenfeld,3.3.8,c,570.1006000000052,26,nonword
226,1,C,2,Lentiform Loewenfeld,3.3.8,c,544.6744999998482,26,nonword
227,0,M,2,Lentiform Loewenfeld,3.3.8,c,509.47010000015143,26,word
228,1,C,4,Lentiform Loewenfeld,3.3.8,c,569.0785999998916,26,nonword
229,1,C,4,Lentiform Loewenfeld,3.3.8,c,633.9980000000214,26,nonword
230,0,M,4,Lentiform Loewenfeld,3.3.8,c,695.2761999999639,26,word
231,1,M,1,Lentiform Loewenfeld,3.3.8,m,514.2066000000341,26,word
232,0,C,6,Lentiform Loewenfeld,3.3.8,m,563.9596999998903,26,nonword
233,1,M,2,Lentiform Loewenfeld,3.3.8,m,791.0672999999952,26,word
234,1,M,1,Lentiform Loewenfeld,3.3.8,m,604.6355999999214,26,word
235,1,C,3,Lentiform Loewenfeld,3.3.8,c,619.3220999999903,26,nonword
236,1,M,2,Lentiform Loewenfeld,3.3.8,m,579.3504999999423,26,word
237,1,C,5,Lentiform Loewenfeld,3.3.8,c,576.9518000000389,26,nonword
238,1,C,3,Lentiform Loewenfeld,3.3.8,c,552.5720999998739,26,nonword
239,1,M,1,Lentiform Loewenfeld,3.3.8,m,602.9773000000278,26,word
240,1,C,2,Lentiform Loewenfeld,3.3.8,c,554.7680999999866,26,nonword
241,1,M,3,Lentiform Loewenfeld,3.3.8,m,510.8657999999122,26,word
242,1,M,6,Lentiform Loewenfeld,3.3.8,m,673.2935999999754,26,word
243,1,M,7,Lentiform Loewenfeld,3.3.8,m,555.704000000027,26,word
244,1,C,4,Lentiform Loewenfeld,3.3.8,c,583.3190999999642,26,nonword
245,1,M,5,Lentiform Loewenfeld,3.3.8,m,504.57810000004247,26,word
246,1,M,6,Lentiform Loewenfeld,3.3.8,m,655.3250999999,26,word
247,0,C,7,Lentiform Loewenfeld,3.3.8,m,629.952099999995,26,nonword
248,1,M,5,Lentiform Loewenfeld,3.3.8,m,581.2599000000628,26,word
249,1,M,7,Lentiform Loewenfeld,3.3.8,m,568.3170999999857,26,word
250,1,C,4,Lentiform Loewenfeld,3.3.8,c,571.4437000000617,26,nonword
251,1,M,3,Lentiform Loewenfeld,3.3.8,m,581.5540000000037,26,word
252,1,M,4,Lentiform Loewenfeld,3.3.8,m,524.8645999999717,26,word
253,1,M,5,Lentiform Loewenfeld,3.3.8,m,521.7613999999594,26,word
254,1,C,7,Lentiform Loewenfeld,3.3.8,c,577.0127000001958,26,nonword
255,0,C,2,Lentiform Loewenfeld,3.3.8,m,708.2875999999233,26,nonword
256,1,M,6,Lentiform Loewenfeld,3.3.8,m,619.7538000000641,26,word
257,1,M,4,Lentiform Loewenfeld,3.3.8,m,599.3434000000125,26,word
258,1,C,7,Lentiform Loewenfeld,3.3.8,c,534.4344000000274,26,nonword
259,1,C,6,Lentiform Loewenfeld,3.3.8,c,517.8891999998596,26,nonword
260,1,C,3,Lentiform Loewenfeld,3.3.8,c,498.6649000000907,26,nonword
261,1,M,2,Lentiform Loewenfeld,3.3.8,m,566.9716999998782,26,word
262,1,C,3,Lentiform Loewenfeld,3.3.8,c,855.3937000001315,26,nonword
263,1,C,7,Lentiform Loewenfeld,3.3.8,c,580.125100000063,26,nonword
264,1,M,3,Lentiform Loewenfeld,3.3.8,m,612.7135000000708,26,word
265,1,M,1,Lentiform Loewenfeld,3.3.8,m,593.6268999999156,26,word
266,1,C,5,Lentiform Loewenfeld,3.3.8,c,649.9145000000717,26,nonword
267,1,M,3,Lentiform Loewenfeld,3.3.8,m,782.8551000000443,26,word
268,1,M,2,Lentiform Loewenfeld,3.3.8,m,614.5998999999138,26,word
269,1,C,6,Lentiform Loewenfeld,3.3.8,c,685.8830000000307,26,nonword
270,1,C,3,Lentiform Loewenfeld,3.3.8,c,591.9599999999627,26,nonword
271,1,M,2,Lentiform Loewenfeld,3.3.8,m,574.5397000000812,26,word
272,1,C,5,Lentiform Loewenfeld,3.3.8,c,668.9642999999924,26,nonword
273,1,C,7,Lentiform Loewenfeld,3.3.8,c,408.8650000001071,26,nonword
274,1,M,5,Lentiform Loewenfeld,3.3.8,m,673.1986000000034,26,word
275,1,M,7,Lentiform Loewenfeld,3.3.8,m,622.2943000000669,26,word
276,1,C,3,Lentiform Loewenfeld,3.3.8,c,535.0777000000235,26,nonword
277,1,C,4,Lentiform Loewenfeld,3.3.8,c,490.9954999999609,26,nonword
278,1,M,7,Lentiform Loewenfeld,3.3.8,m,634.4453000000212,26,word
279,1,M,6,Lentiform Loewenfeld,3.3.8,m,598.6964000000153,26,word
280,0,C,5,Lentiform Loewenfeld,3.3.8,m,562.3140999999596,26,nonword
281,1,M,4,Lentiform Loewenfeld,3.3.8,m,655.9207999999635,26,word
282,1,M,3,Lentiform Loewenfeld,3.3.8,m,566.8433000000659,26,word
283,1,C,3,Lentiform Loewenfeld,3.3.8,c,547.1171000000322,26,nonword
284,1,M,3,Lentiform Loewenfeld,3.3.8,m,553.7303000000538,26,word
285,1,M,4,Lentiform Loewenfeld,3.3.8,m,954.6790999999503,26,word
286,1,C,2,Lentiform Loewenfeld,3.3.8,c,674.8572000000859,26,nonword
287,1,C,5,Lentiform Loewenfeld,3.3.8,c,630.1396999999415,26,nonword
288,1,C,3,Lentiform Loewenfeld,3.3.8,c,691.3963000000222,26,nonword
289,1,C,5,Lentiform Loewenfeld,3.3.8,c,526.6448000000091,26,nonword
290,1,M,4,Lentiform Loewenfeld,3.3.8,m,576.5848999998998,26,word
291,1,C,6,Lentiform Loewenfeld,3.3.8,c,564.9956000001403,26,nonword
292,1,M,2,Lentiform Loewenfeld,3.3.8,m,475.61579999991227,26,word
293,1,C,1,Lentiform Loewenfeld,3.3.8,c,520.9169000000693,26,nonword
294,1,M,5,Lentiform Loewenfeld,3.3.8,m,528.0781000000425,26,word
295,1,C,7,Lentiform Loewenfeld,3.3.8,c,593.3329999999842,26,nonword
296,1,M,3,Lentiform Loewenfeld,3.3.8,m,707.81119999988,26,word
297,0,M,2,Lentiform Loewenfeld,3.3.8,c,647.3206000000937,26,word
298,1,M,3,Lentiform Loewenfeld,3.3.8,m,491.54529999999795,26,word
299,1,C,2,Lentiform Loewenfeld,3.3.8,c,560.6857000000309,26,nonword
300,0,C,3,Lentiform Loewenfeld,3.3.8,m,596.483600000036,26,nonword
301,1,C,3,Lentiform Loewenfeld,3.3.8,c,606.7286999999778,26,nonword
302,1,C,5,Lentiform Loewenfeld,3.3.8,c,592.1197999999858,26,nonword
303,1,M,2,Lentiform Loewenfeld,3.3.8,m,617.7088999998523,26,word
304,1,M,6,Lentiform Loewenfeld,3.3.8,m,548.6453999998048,26,word
305,1,M,2,Lentiform Loewenfeld,3.3.8,m,613.9303999999538,26,word
306,1,M,6,Lentiform Loewenfeld,3.3.8,m,743.3427000000374,26,word
307,1,C,3,Lentiform Loewenfeld,3.3.8,c,638.9501999999629,26,nonword
308,1,C,6,Lentiform Loewenfeld,3.3.8,c,567.3674000001047,26,nonword
309,1,M,4,Lentiform Loewenfeld,3.3.8,m,588.4898000000976,26,word
310,1,C,2,Lentiform Loewenfeld,3.3.8,c,697.2600000000093,26,nonword
311,1,M,1,Lentiform Loewenfeld,3.3.8,m,625.0030000000261,26,word
312,1,C,6,Lentiform Loewenfeld,3.3.8,c,608.2631000000983,26,nonword
313,1,M,5,Lentiform Loewenfeld,3.3.8,m,528.8532999999588,26,word
314,1,C,1,Lentiform Loewenfeld,3.3.8,c,530.623900000006,26,nonword
315,1,C,7,Lentiform Loewenfeld,3.3.8,c,637.5489000000525,26,nonword
316,1,C,6,Lentiform Loewenfeld,3.3.8,c,580.9957999998005,26,nonword
317,1,M,4,Lentiform Loewenfeld,3.3.8,m,653.0945999999531,26,word
318,1,M,6,Lentiform Loewenfeld,3.3.8,m,606.8746999998111,26,word
319,1,M,7,Lentiform Loewenfeld,3.3.8,m,582.4538000000175,26,word
320,1,C,3,Lentiform Loewenfeld,3.3.8,c,588.7095999998273,26,nonword
321,1,C,5,Lentiform Loewenfeld,3.3.8,c,616.4493000000948,26,nonword
322,1,C,4,Lentiform Loewenfeld,3.3.8,c,788.0651999997208,26,nonword
323,1,M,4,Lentiform Loewenfeld,3.3.8,m,564.9165999999968,26,word
324,1,M,4,Lentiform Loewenfeld,3.3.8,m,556.2421000001486,26,word
325,1,C,1,Lentiform Loewenfeld,3.3.8,c,559.1940999999642,26,nonword
326,1,C,1,Lentiform Loewenfeld,3.3.8,c,743.185499999905,26,nonword
327,1,C,4,Lentiform Loewenfeld,3.3.8,c,697.7617999999784,26,nonword
328,1,C,1,Lentiform Loewenfeld,3.3.8,c,606.3553000000538,26,nonword
329,1,M,5,Lentiform Loewenfeld,3.3.8,m,764.779499999946,26,word
330,1,C,3,Lentiform Loewenfeld,3.3.8,c,880.3274000000674,26,nonword
331,1,C,4,Lentiform Loewenfeld,3.3.8,c,542.3962999999058,26,nonword
332,1,C,3,Lentiform Loewenfeld,3.3.8,c,592.7014000000199,26,nonword
333,1,C,6,Lentiform Loewenfeld,3.3.8,c,571.775599999819,26,nonword
334,1,M,7,Lentiform Loewenfeld,3.3.8,m,664.8827000000747,26,word
335,1,C,5,Lentiform Loewenfeld,3.3.8,c,619.6691000001738,26,nonword
336,1,C,4,Lentiform Loewenfeld,3.3.8,c,629.4107000000076,26,nonword
337,1,M,2,Lentiform Loewenfeld,3.3.8,m,592.4840000001714,26,word
338,1,C,5,Lentiform Loewenfeld,3.3.8,c,565.2431000000797,26,nonword
339,1,M,3,Lentiform Loewenfeld,3.3.8,m,546.7194000001764,26,word
340,1,C,2,Lentiform Loewenfeld,3.3.8,c,611.8144000001485,26,nonword
341,1,M,4,Lentiform Loewenfeld,3.3.8,m,581.0628999999026,26,word
342,1,C,1,Lentiform Loewenfeld,3.3.8,c,560.5163000001339,26,nonword
343,1,C,5,Lentiform Loewenfeld,3.3.8,c,530.433899999829,26,nonword
344,1,M,7,Lentiform Loewenfeld,3.3.8,m,708.9041000000434,26,word
345,1,M,4,Lentiform Loewenfeld,3.3.8,m,530.2866000001086,26,word
346,0,M,1,Lentiform Loewenfeld,3.3.8,c,694.8890999997966,26,word
347,1,M,3,Lentiform Loewenfeld,3.3.8,m,541.6406000001589,26,word
348,1,C,4,Lentiform Loewenfeld,3.3.8,c,541.4105000001146,26,nonword
349,1,C,1,Lentiform Loewenfeld,3.3.8,c,547.5211999997264,26,nonword
350,1,M,5,Lentiform Loewenfeld,3.3.8,m,590.2732000001706,26,word
351,1,C,1,Lentiform Loewenfeld,3.3.8,c,640.8900000001304,26,nonword
352,1,C,5,Lentiform Loewenfeld,3.3.8,c,607.3108999998076,26,nonword
353,1,M,2,Lentiform Loewenfeld,3.3.8,m,589.0923000001349,26,word
354,1,M,7,Lentiform Loewenfeld,3.3.8,m,513.5396999999648,26,word
355,1,C,4,Lentiform Loewenfeld,3.3.8,c,526.468899999978,26,nonword
356,1,M,6,Lentiform Loewenfeld,3.3.8,m,514.2443999999668,26,word
357,1,C,2,Lentiform Loewenfeld,3.3.8,c,490.73079999990296,26,nonword
358,1,M,5,Lentiform Loewenfeld,3.3.8,m,547.4691000001039,26,word
359,1,C,5,Lentiform Loewenfeld,3.3.8,c,685.4317999999039,26,nonword
360,1,C,2,Lentiform Loewenfeld,3.3.8,c,508.8530000002356,26,nonword
361,1,M,7,Lentiform Loewenfeld,3.3.8,m,520.4586999999592,26,word
362,0,M,5,Lentiform Loewenfeld,3.3.8,c,653.5558999998029,26,word
363,0,M,1,Lentiform Loewenfeld,3.3.8,c,667.4790999999968,26,word
364,1,M,1,Lentiform Loewenfeld,3.3.8,m,557.4233999999706,26,word
365,1,C,2,Lentiform Loewenfeld,3.3.8,c,609.9012999999104,26,nonword
366,1,C,4,Lentiform Loewenfeld,3.3.8,c,631.454400000046,26,nonword
367,1,M,2,Lentiform Loewenfeld,3.3.8,m,771.1766999999527,26,word
368,1,C,1,Lentiform Loewenfeld,3.3.8,c,706.4218999998411,26,nonword
369,1,C,7,Lentiform Loewenfeld,3.3.8,c,672.515199999907,26,nonword
370,1,M,6,Lentiform Loewenfeld,3.3.8,m,551.4728999999352,26,word
371,1,M,4,Lentiform Loewenfeld,3.3.8,m,549.0401000001002,26,word
372,1,M,6,Lentiform Loewenfeld,3.3.8,m,587.5135000001173,26,word
373,1,M,3,Lentiform Loewenfeld,3.3.8,m,560.2418999999063,26,word
374,1,C,2,Lentiform Loewenfeld,3.3.8,c,676.9801000001607,26,nonword
375,1,C,1,Lentiform Loewenfeld,3.3.8,c,597.4416000000201,26,nonword
376,1,M,7,Lentiform Loewenfeld,3.3.8,m,587.3964000000851,26,word
377,1,C,1,Lentiform Loewenfeld,3.3.8,c,553.6959000000497,26,nonword
378,1,M,7,Lentiform Loewenfeld,3.3.8,m,572.268100000103,26,word
379,1,M,2,Lentiform Loewenfeld,3.3.8,m,618.0242000001017,26,word
380,1,C,7,Lentiform Loewenfeld,3.3.8,c,567.6487000000197,26,nonword
381,1,M,6,Lentiform Loewenfeld,3.3.8,m,1026.7233000000706,26,word
382,1,M,2,Lentiform Loewenfeld,3.3.8,m,618.7955000000075,26,word
383,1,C,4,Lentiform Loewenfeld,3.3.8,c,750.2144999998854,26,nonword
384,1,M,6,Lentiform Loewenfeld,3.3.8,m,580.4341000001878,26,word
385,1,M,7,Lentiform Loewenfeld,3.3.8,m,534.2328999998281,26,word
386,1,C,6,Lentiform Loewenfeld,3.3.8,c,963.3724999999395,26,nonword
387,1,C,5,Lentiform Loewenfeld,3.3.8,c,575.685199999949,26,nonword
388,1,M,1,Lentiform Loewenfeld,3.3.8,m,598.3146999997552,26,word
389,1,C,7,Lentiform Loewenfeld,3.3.8,c,579.0863999999128,26,nonword
390,0,C,6,Lentiform Loewenfeld,3.3.8,m,644.3356999999378,26,nonword
391,1,C,5,Lentiform Loewenfeld,3.3.8,c,654.4787000000942,26,nonword
392,1,C,7,Lentiform Loewenfeld,3.3.8,c,593.7430000000168,26,nonword
393,1,M,5,Lentiform Loewenfeld,3.3.8,m,509.16580000007525,26,word
394,1,C,6,Lentiform Loewenfeld,3.3.8,c,607.6011999999173,26,nonword
395,0,C,2,Lentiform Loewenfeld,3.3.8,m,690.7429000001866,26,nonword
396,1,M,1,Lentiform Loewenfeld,3.3.8,m,640.8236999998335,26,word
397,1,M,2,Lentiform Loewenfeld,3.3.8,m,781.748900000006,26,word
398,1,M,6,Lentiform Loewenfeld,3.3.8,m,525.9754000001121,26,word
399,1,C,2,Lentiform Loewenfeld,3.3.8,c,726.8999999999069,26,nonword
400,1,C,6,Lentiform Loewenfeld,3.3.8,c,650.9954999999609,26,nonword
401,1,M,1,Lentiform Loewenfeld,3.3.8,m,670.100000000326,26,word
402,1,C,1,Lentiform Loewenfeld,3.3.8,c,589.534100000048,26,nonword
403,1,C,3,Lentiform Loewenfeld,3.3.8,c,581.1092999998946,26,nonword
404,1,M,7,Lentiform Loewenfeld,3.3.8,m,652.533000000054,26,word
405,1,M,5,Lentiform Loewenfeld,3.3.8,m,520.9587000000756,26,word
406,1,M,2,Lentiform Loewenfeld,3.3.8,m,584.5543000001926,26,word
407,1,M,6,Lentiform Loewenfeld,3.3.8,m,604.6691000000574,26,word
408,1,C,2,Lentiform Loewenfeld,3.3.8,c,595.4731000000611,26,nonword
409,1,C,1,Lentiform Loewenfeld,3.3.8,c,577.0422999998555,26,nonword
410,1,C,5,Lentiform Loewenfeld,3.3.8,c,610.6631000000052,26,nonword
411,1,M,4,Lentiform Loewenfeld,3.3.8,m,613.1163999999408,26,word
412,1,C,4,Lentiform Loewenfeld,3.3.8,c,646.8840000003111,26,nonword
413,1,M,4,Lentiform Loewenfeld,3.3.8,m,575.1349000001792,26,word
414,1,M,5,Lentiform Loewenfeld,3.3.8,m,533.0811000000685,26,word
415,1,M,1,Lentiform Loewenfeld,3.3.8,m,521.6848999999929,26,word
416,0,M,7,Lentiform Loewenfeld,3.3.8,c,522.1248000001069,26,word
417,1,C,1,Lentiform Loewenfeld,3.3.8,c,580.3901000001933,26,nonword
418,1,M,2,Lentiform Loewenfeld,3.3.8,m,621.6342000002041,26,word
419,1,M,7,Lentiform Loewenfeld,3.3.8,m,480.2392999997828,26,word
