Unnamed: 0,correct_keyboard_response_1,correct_response,flanker_condition,opensesame_codename,opensesame_version,response_keyboard_response_1,response_time_keyboard_response_1,subject_nr,target_type
0,1,C,1,Lentiform Loewenfeld,3.3.8,c,535.9469999999856,10,nonword
1,1,M,4,Lentiform Loewenfeld,3.3.8,m,535.532600000035,10,word
2,1,M,3,Lentiform Loewenfeld,3.3.8,m,500.9930999999924,10,word
3,0,C,5,Lentiform Loewenfeld,3.3.8,m,372.1000000000058,10,nonword
4,1,C,7,Lentiform Loewenfeld,3.3.8,c,577.3946999999753,10,nonword
5,1,M,6,Lentiform Loewenfeld,3.3.8,m,411.781399999978,10,word
6,1,C,6,Lentiform Loewenfeld,3.3.8,c,476.0936999999976,10,nonword
7,1,C,5,Lentiform Loewenfeld,3.3.8,c,566.5542000000132,10,nonword
8,1,C,1,Lentiform Loewenfeld,3.3.8,c,553.5094000000099,10,nonword
9,1,M,7,Lentiform Loewenfeld,3.3.8,m,508.63059999997495,10,word
10,1,C,2,Lentiform Loewenfeld,3.3.8,c,438.0879000000132,10,nonword
11,1,C,2,Lentiform Loewenfeld,3.3.8,c,529.1802999999782,10,nonword
12,1,M,1,Lentiform Loewenfeld,3.3.8,m,521.950199999992,10,word
13,1,C,6,Lentiform Loewenfeld,3.3.8,c,507.22400000004563,10,nonword
14,1,C,1,Lentiform Loewenfeld,3.3.8,c,728.0200999999943,10,nonword
15,1,C,7,Lentiform Loewenfeld,3.3.8,c,516.2744000000239,10,nonword
16,0,M,4,Lentiform Loewenfeld,3.3.8,c,506.0724999999802,10,word
17,1,C,3,Lentiform Loewenfeld,3.3.8,c,566.8278999999748,10,nonword
18,1,M,2,Lentiform Loewenfeld,3.3.8,m,475.4186000000336,10,word
19,1,C,4,Lentiform Loewenfeld,3.3.8,c,533.5413000000408,10,nonword
20,1,C,2,Lentiform Loewenfeld,3.3.8,c,551.1962999999814,10,nonword
21,0,M,2,Lentiform Loewenfeld,3.3.8,c,462.44959999999264,10,word
22,1,C,7,Lentiform Loewenfeld,3.3.8,c,601.0677000000142,10,nonword
23,1,C,1,Lentiform Loewenfeld,3.3.8,c,521.9951000000001,10,nonword
24,1,C,6,Lentiform Loewenfeld,3.3.8,c,456.1477999999479,10,nonword
25,1,C,1,Lentiform Loewenfeld,3.3.8,c,501.0731000000087,10,nonword
26,1,M,1,Lentiform Loewenfeld,3.3.8,m,456.3454999999667,10,word
27,1,C,6,Lentiform Loewenfeld,3.3.8,c,618.7871999999916,10,nonword
28,1,C,2,Lentiform Loewenfeld,3.3.8,c,499.0497000000323,10,nonword
29,1,C,1,Lentiform Loewenfeld,3.3.8,c,502.9737000000023,10,nonword
30,1,M,5,Lentiform Loewenfeld,3.3.8,m,571.2681000000157,10,word
31,1,M,3,Lentiform Loewenfeld,3.3.8,m,494.52450000002864,10,word
32,1,M,6,Lentiform Loewenfeld,3.3.8,m,424.60189999997965,10,word
33,1,C,5,Lentiform Loewenfeld,3.3.8,c,550.0742999999784,10,nonword
34,1,M,5,Lentiform Loewenfeld,3.3.8,m,518.0031000000017,10,word
35,1,M,3,Lentiform Loewenfeld,3.3.8,m,644.2822000000451,10,word
36,1,C,7,Lentiform Loewenfeld,3.3.8,c,595.3833000000159,10,nonword
37,1,M,1,Lentiform Loewenfeld,3.3.8,m,626.6155999999901,10,word
38,1,M,6,Lentiform Loewenfeld,3.3.8,m,544.923300000024,10,word
39,1,C,7,Lentiform Loewenfeld,3.3.8,c,629.6549000000232,10,nonword
40,1,C,4,Lentiform Loewenfeld,3.3.8,c,720.6033999999927,10,nonword
41,1,M,3,Lentiform Loewenfeld,3.3.8,m,553.6785999999556,10,word
42,1,M,1,Lentiform Loewenfeld,3.3.8,m,504.4696999999578,10,word
43,0,C,2,Lentiform Loewenfeld,3.3.8,m,896.9530999999843,10,nonword
44,1,C,6,Lentiform Loewenfeld,3.3.8,c,542.9943999999668,10,nonword
45,1,M,5,Lentiform Loewenfeld,3.3.8,m,570.5881999999983,10,word
46,1,C,7,Lentiform Loewenfeld,3.3.8,c,589.7306999999855,10,nonword
47,1,M,7,Lentiform Loewenfeld,3.3.8,m,685.3390000000072,10,word
48,1,C,6,Lentiform Loewenfeld,3.3.8,c,506.5705999999773,10,nonword
49,1,C,6,Lentiform Loewenfeld,3.3.8,c,468.1584000000148,10,nonword
50,1,M,3,Lentiform Loewenfeld,3.3.8,m,496.1566000000457,10,word
51,1,M,6,Lentiform Loewenfeld,3.3.8,m,477.0981000000029,10,word
52,0,C,6,Lentiform Loewenfeld,3.3.8,m,375.71349999998347,10,nonword
53,1,C,5,Lentiform Loewenfeld,3.3.8,c,546.0225999999675,10,nonword
54,1,M,5,Lentiform Loewenfeld,3.3.8,m,688.1280000000261,10,word
55,1,M,2,Lentiform Loewenfeld,3.3.8,m,542.5499999999593,10,word
56,1,M,5,Lentiform Loewenfeld,3.3.8,m,540.2932000000437,10,word
57,1,C,1,Lentiform Loewenfeld,3.3.8,c,516.4518999999564,10,nonword
58,1,M,3,Lentiform Loewenfeld,3.3.8,m,620.865599999961,10,word
59,1,M,5,Lentiform Loewenfeld,3.3.8,m,491.45059999998193,10,word
60,0,M,4,Lentiform Loewenfeld,3.3.8,c,496.53290000002016,10,word
61,1,C,3,Lentiform Loewenfeld,3.3.8,c,597.8298999999824,10,nonword
62,1,M,2,Lentiform Loewenfeld,3.3.8,m,485.4611000000441,10,word
63,1,C,2,Lentiform Loewenfeld,3.3.8,c,580.4035999999614,10,nonword
64,1,M,2,Lentiform Loewenfeld,3.3.8,m,645.3622999999789,10,word
65,1,M,4,Lentiform Loewenfeld,3.3.8,m,474.26880000001984,10,word
66,1,C,2,Lentiform Loewenfeld,3.3.8,c,500.8742000000202,10,nonword
67,1,C,2,Lentiform Loewenfeld,3.3.8,c,503.4827000001096,10,nonword
68,1,C,3,Lentiform Loewenfeld,3.3.8,c,538.5996999999625,10,nonword
69,1,M,3,Lentiform Loewenfeld,3.3.8,m,423.0359999999637,10,word
70,1,M,4,Lentiform Loewenfeld,3.3.8,m,555.3064999998896,10,word
71,1,M,3,Lentiform Loewenfeld,3.3.8,m,543.112000000081,10,word
72,1,C,1,Lentiform Loewenfeld,3.3.8,c,522.5351000000373,10,nonword
73,1,C,4,Lentiform Loewenfeld,3.3.8,c,652.9228999999468,10,nonword
74,1,M,6,Lentiform Loewenfeld,3.3.8,m,475.5666000000201,10,word
75,1,C,2,Lentiform Loewenfeld,3.3.8,c,618.3219999999856,10,nonword
76,1,C,6,Lentiform Loewenfeld,3.3.8,c,564.5893000001088,10,nonword
77,1,M,5,Lentiform Loewenfeld,3.3.8,m,533.702399999951,10,word
78,1,C,5,Lentiform Loewenfeld,3.3.8,c,533.8549999999814,10,nonword
79,1,M,6,Lentiform Loewenfeld,3.3.8,m,548.6460000000079,10,word
80,0,C,7,Lentiform Loewenfeld,3.3.8,m,598.2318999999552,10,nonword
81,0,M,4,Lentiform Loewenfeld,3.3.8,c,456.03369999991264,10,word
82,1,M,3,Lentiform Loewenfeld,3.3.8,m,535.1230000000214,10,word
83,1,C,5,Lentiform Loewenfeld,3.3.8,c,552.7399999999907,10,nonword
84,1,C,7,Lentiform Loewenfeld,3.3.8,c,743.7091999999247,10,nonword
85,1,C,7,Lentiform Loewenfeld,3.3.8,c,528.9194000000134,10,nonword
86,1,M,6,Lentiform Loewenfeld,3.3.8,m,442.19130000000587,10,word
87,1,M,2,Lentiform Loewenfeld,3.3.8,m,430.6445999999414,10,word
88,1,M,4,Lentiform Loewenfeld,3.3.8,m,525.5710000000545,10,word
89,1,C,6,Lentiform Loewenfeld,3.3.8,c,554.3767999999691,10,nonword
90,1,M,4,Lentiform Loewenfeld,3.3.8,m,563.1110999999219,10,word
91,1,C,3,Lentiform Loewenfeld,3.3.8,c,500.7474000000512,10,nonword
92,1,C,6,Lentiform Loewenfeld,3.3.8,c,650.7070999999996,10,nonword
93,1,M,2,Lentiform Loewenfeld,3.3.8,m,524.1281999999774,10,word
94,1,M,6,Lentiform Loewenfeld,3.3.8,m,381.758199999982,10,word
95,1,M,5,Lentiform Loewenfeld,3.3.8,m,365.85409999999683,10,word
96,0,C,3,Lentiform Loewenfeld,3.3.8,m,394.6390999999712,10,nonword
97,1,C,3,Lentiform Loewenfeld,3.3.8,c,524.4180000000051,10,nonword
98,1,M,6,Lentiform Loewenfeld,3.3.8,m,492.54120000003604,10,word
99,1,M,4,Lentiform Loewenfeld,3.3.8,m,536.6460000000079,10,word
100,1,C,2,Lentiform Loewenfeld,3.3.8,c,487.444599999988,10,nonword
101,1,C,1,Lentiform Loewenfeld,3.3.8,c,496.7150999999721,10,nonword
102,1,C,3,Lentiform Loewenfeld,3.3.8,c,481.8279999999795,10,nonword
103,1,M,4,Lentiform Loewenfeld,3.3.8,m,797.8001000000513,10,word
104,1,C,3,Lentiform Loewenfeld,3.3.8,c,577.25629999995,10,nonword
105,1,M,4,Lentiform Loewenfeld,3.3.8,m,624.1672999999719,10,word
106,1,C,3,Lentiform Loewenfeld,3.3.8,c,556.4286000000429,10,nonword
107,1,M,6,Lentiform Loewenfeld,3.3.8,m,548.5184999998892,10,word
108,1,M,6,Lentiform Loewenfeld,3.3.8,m,502.137999999919,10,word
109,0,M,7,Lentiform Loewenfeld,3.3.8,c,518.2562000000617,10,word
110,1,M,3,Lentiform Loewenfeld,3.3.8,m,463.1522999999579,10,word
111,1,C,2,Lentiform Loewenfeld,3.3.8,c,548.2932999999612,10,nonword
112,1,M,7,Lentiform Loewenfeld,3.3.8,m,504.22140000003856,10,word
113,1,C,3,Lentiform Loewenfeld,3.3.8,c,560.7027000000235,10,nonword
114,1,C,5,Lentiform Loewenfeld,3.3.8,c,625.7908000000753,10,nonword
115,1,M,5,Lentiform Loewenfeld,3.3.8,m,593.4306000000797,10,word
116,1,M,6,Lentiform Loewenfeld,3.3.8,m,506.7216999999946,10,word
117,1,M,1,Lentiform Loewenfeld,3.3.8,m,460.6230999999097,10,word
118,1,C,1,Lentiform Loewenfeld,3.3.8,c,573.5659999999334,10,nonword
119,1,M,6,Lentiform Loewenfeld,3.3.8,m,576.7161000000197,10,word
120,1,C,5,Lentiform Loewenfeld,3.3.8,c,547.4407999999821,10,nonword
121,1,C,1,Lentiform Loewenfeld,3.3.8,c,578.3859999999986,10,nonword
122,1,C,5,Lentiform Loewenfeld,3.3.8,c,618.4873000000371,10,nonword
123,1,M,7,Lentiform Loewenfeld,3.3.8,m,537.4107000000076,10,word
124,1,M,2,Lentiform Loewenfeld,3.3.8,m,609.5269999999437,10,word
125,1,C,7,Lentiform Loewenfeld,3.3.8,c,484.76250000001164,10,nonword
126,1,C,5,Lentiform Loewenfeld,3.3.8,c,654.5989999999874,10,nonword
127,1,C,6,Lentiform Loewenfeld,3.3.8,c,461.18049999995856,10,nonword
128,1,C,3,Lentiform Loewenfeld,3.3.8,c,501.28650000004563,10,nonword
129,1,M,6,Lentiform Loewenfeld,3.3.8,m,545.3838000000105,10,word
130,1,M,1,Lentiform Loewenfeld,3.3.8,m,510.3010999999824,10,word
131,1,C,4,Lentiform Loewenfeld,3.3.8,c,557.1116000000038,10,nonword
132,1,M,3,Lentiform Loewenfeld,3.3.8,m,538.8563000000431,10,word
133,1,M,3,Lentiform Loewenfeld,3.3.8,m,597.1277999999584,10,word
134,1,M,7,Lentiform Loewenfeld,3.3.8,m,428.42680000001565,10,word
135,0,M,1,Lentiform Loewenfeld,3.3.8,c,518.5304999999353,10,word
136,1,C,1,Lentiform Loewenfeld,3.3.8,c,555.6656999999541,10,nonword
137,1,M,1,Lentiform Loewenfeld,3.3.8,m,476.7419000000227,10,word
138,1,C,3,Lentiform Loewenfeld,3.3.8,c,521.5190000000293,10,nonword
139,1,M,3,Lentiform Loewenfeld,3.3.8,m,451.6237999998848,10,word
140,1,C,2,Lentiform Loewenfeld,3.3.8,c,525.4278999999515,10,nonword
141,1,M,7,Lentiform Loewenfeld,3.3.8,m,577.0726000000141,10,word
142,1,C,7,Lentiform Loewenfeld,3.3.8,c,696.4788000000408,10,nonword
143,1,M,1,Lentiform Loewenfeld,3.3.8,m,489.2493999999715,10,word
144,1,M,2,Lentiform Loewenfeld,3.3.8,m,458.69449999998324,10,word
145,1,M,7,Lentiform Loewenfeld,3.3.8,m,422.67249999998603,10,word
146,1,C,3,Lentiform Loewenfeld,3.3.8,c,635.6328999999096,10,nonword
147,1,M,3,Lentiform Loewenfeld,3.3.8,m,455.5207000000519,10,word
148,1,C,1,Lentiform Loewenfeld,3.3.8,c,682.6346999999951,10,nonword
149,1,C,3,Lentiform Loewenfeld,3.3.8,c,632.2602000000188,10,nonword
150,1,M,2,Lentiform Loewenfeld,3.3.8,m,796.3350999999675,10,word
151,1,M,5,Lentiform Loewenfeld,3.3.8,m,467.94590000004973,10,word
152,1,M,5,Lentiform Loewenfeld,3.3.8,m,395.74130000011064,10,word
153,1,M,7,Lentiform Loewenfeld,3.3.8,m,311.82400000002235,10,word
154,1,C,6,Lentiform Loewenfeld,3.3.8,c,540.6477000000305,10,nonword
155,1,M,2,Lentiform Loewenfeld,3.3.8,m,622.9135999999708,10,word
156,1,M,1,Lentiform Loewenfeld,3.3.8,m,507.0588999999454,10,word
157,0,C,7,Lentiform Loewenfeld,3.3.8,m,541.6171999999206,10,nonword
158,1,M,1,Lentiform Loewenfeld,3.3.8,m,738.7678000000305,10,word
159,1,C,5,Lentiform Loewenfeld,3.3.8,c,587.1373000000021,10,nonword
160,1,M,1,Lentiform Loewenfeld,3.3.8,m,517.2513000000617,10,word
161,1,M,1,Lentiform Loewenfeld,3.3.8,m,388.21100000012666,10,word
162,1,M,2,Lentiform Loewenfeld,3.3.8,m,452.9963000000571,10,word
163,1,M,2,Lentiform Loewenfeld,3.3.8,m,426.6359999999404,10,word
164,1,C,3,Lentiform Loewenfeld,3.3.8,c,582.5339000000386,10,nonword
165,1,M,7,Lentiform Loewenfeld,3.3.8,m,651.1908999999287,10,word
166,0,C,3,Lentiform Loewenfeld,3.3.8,m,384.7752999999211,10,nonword
167,1,M,6,Lentiform Loewenfeld,3.3.8,m,483.0615000001271,10,word
168,1,M,3,Lentiform Loewenfeld,3.3.8,m,431.16029999998864,10,word
169,1,M,6,Lentiform Loewenfeld,3.3.8,m,398.11799999995856,10,word
170,1,M,3,Lentiform Loewenfeld,3.3.8,m,483.25660000002244,10,word
171,0,C,4,Lentiform Loewenfeld,3.3.8,m,314.6720000000205,10,nonword
172,1,M,5,Lentiform Loewenfeld,3.3.8,m,519.1529000000446,10,word
173,1,C,4,Lentiform Loewenfeld,3.3.8,c,566.8900000000722,10,nonword
174,1,M,3,Lentiform Loewenfeld,3.3.8,m,685.3665000000037,10,word
175,1,C,2,Lentiform Loewenfeld,3.3.8,c,584.6057999999612,10,nonword
176,1,C,6,Lentiform Loewenfeld,3.3.8,c,556.6972000000533,10,nonword
177,1,M,1,Lentiform Loewenfeld,3.3.8,m,521.4933999999193,10,word
178,1,M,7,Lentiform Loewenfeld,3.3.8,m,641.290100000042,10,word
179,1,M,3,Lentiform Loewenfeld,3.3.8,m,425.0332000000635,10,word
180,1,C,5,Lentiform Loewenfeld,3.3.8,c,528.3004000000656,10,nonword
181,1,C,6,Lentiform Loewenfeld,3.3.8,c,669.7315999999992,10,nonword
182,1,C,6,Lentiform Loewenfeld,3.3.8,c,599.4859000000288,10,nonword
183,1,M,5,Lentiform Loewenfeld,3.3.8,m,490.75579999998445,10,word
184,1,C,3,Lentiform Loewenfeld,3.3.8,c,628.6993000000366,10,nonword
185,1,M,7,Lentiform Loewenfeld,3.3.8,m,450.2903000000515,10,word
186,1,M,6,Lentiform Loewenfeld,3.3.8,m,375.9496999999974,10,word
187,0,C,3,Lentiform Loewenfeld,3.3.8,m,335.8889999999665,10,nonword
188,1,M,2,Lentiform Loewenfeld,3.3.8,m,467.2253000000492,10,word
189,1,M,7,Lentiform Loewenfeld,3.3.8,m,505.14469999994617,10,word
190,1,M,1,Lentiform Loewenfeld,3.3.8,m,435.0863000000245,10,word
191,0,M,2,Lentiform Loewenfeld,3.3.8,c,554.0638000000035,10,word
192,1,C,7,Lentiform Loewenfeld,3.3.8,c,700.6367000000901,10,nonword
193,1,M,7,Lentiform Loewenfeld,3.3.8,m,441.23540000000503,10,word
194,1,C,2,Lentiform Loewenfeld,3.3.8,c,624.2186999999685,10,nonword
195,1,C,5,Lentiform Loewenfeld,3.3.8,c,613.7853999999934,10,nonword
196,1,C,2,Lentiform Loewenfeld,3.3.8,c,512.2536000000546,10,nonword
197,1,M,5,Lentiform Loewenfeld,3.3.8,m,632.6518999999389,10,word
198,1,C,6,Lentiform Loewenfeld,3.3.8,c,596.4194000000716,10,nonword
199,1,M,6,Lentiform Loewenfeld,3.3.8,m,662.0390000001062,10,word
200,1,M,6,Lentiform Loewenfeld,3.3.8,m,561.1303000000771,10,word
201,1,M,7,Lentiform Loewenfeld,3.3.8,m,407.2251999999862,10,word
202,1,M,6,Lentiform Loewenfeld,3.3.8,m,349.818399999931,10,word
203,0,C,4,Lentiform Loewenfeld,3.3.8,m,351.2893999998924,10,nonword
204,1,M,5,Lentiform Loewenfeld,3.3.8,m,437.596300000092,10,word
205,1,M,1,Lentiform Loewenfeld,3.3.8,m,495.406399999978,10,word
206,1,M,7,Lentiform Loewenfeld,3.3.8,m,395.5138999999035,10,word
207,1,C,1,Lentiform Loewenfeld,3.3.8,c,473.30569999990985,10,nonword
208,1,C,3,Lentiform Loewenfeld,3.3.8,c,438.6145999999717,10,nonword
209,1,M,4,Lentiform Loewenfeld,3.3.8,m,397.21470000001136,10,word
210,1,M,3,Lentiform Loewenfeld,3.3.8,m,464.49929999990854,10,word
211,1,M,5,Lentiform Loewenfeld,3.3.8,m,553.9431000000332,10,word
212,1,C,4,Lentiform Loewenfeld,3.3.8,c,614.0513000000501,10,nonword
213,1,M,4,Lentiform Loewenfeld,3.3.8,m,890.5150999999605,10,word
214,1,C,3,Lentiform Loewenfeld,3.3.8,c,651.5402000000468,10,nonword
215,1,M,7,Lentiform Loewenfeld,3.3.8,m,416.8383000000613,10,word
216,1,M,5,Lentiform Loewenfeld,3.3.8,m,368.45060000009835,10,word
217,1,C,4,Lentiform Loewenfeld,3.3.8,c,566.0697999999393,10,nonword
218,1,M,2,Lentiform Loewenfeld,3.3.8,m,469.32319999998435,10,word
219,1,C,1,Lentiform Loewenfeld,3.3.8,c,536.4414000000106,10,nonword
220,1,M,5,Lentiform Loewenfeld,3.3.8,m,501.23600000014994,10,word
221,1,C,4,Lentiform Loewenfeld,3.3.8,c,514.8119000000879,10,nonword
222,1,M,7,Lentiform Loewenfeld,3.3.8,m,376.0729000000283,10,word
223,1,C,5,Lentiform Loewenfeld,3.3.8,c,509.58789999992587,10,nonword
224,1,M,5,Lentiform Loewenfeld,3.3.8,m,505.6757000000216,10,word
225,1,C,6,Lentiform Loewenfeld,3.3.8,c,474.63959999999497,10,nonword
226,1,C,4,Lentiform Loewenfeld,3.3.8,c,924.2502000001259,10,nonword
227,1,M,1,Lentiform Loewenfeld,3.3.8,m,553.1397000000579,10,word
228,1,C,7,Lentiform Loewenfeld,3.3.8,c,531.4146000001347,10,nonword
229,1,C,3,Lentiform Loewenfeld,3.3.8,c,540.1805000001332,10,nonword
230,1,C,4,Lentiform Loewenfeld,3.3.8,c,501.60720000008587,10,nonword
231,1,C,4,Lentiform Loewenfeld,3.3.8,c,489.34659999993164,10,nonword
232,1,M,3,Lentiform Loewenfeld,3.3.8,m,548.3310000000056,10,word
233,1,C,1,Lentiform Loewenfeld,3.3.8,c,525.7566000000807,10,nonword
234,0,M,3,Lentiform Loewenfeld,3.3.8,c,620.2038000000175,10,word
235,1,C,7,Lentiform Loewenfeld,3.3.8,c,719.9714999999851,10,nonword
236,1,M,3,Lentiform Loewenfeld,3.3.8,m,644.7415999999503,10,word
237,1,C,4,Lentiform Loewenfeld,3.3.8,c,531.0273999999044,10,nonword
238,1,C,4,Lentiform Loewenfeld,3.3.8,c,677.3016999999527,10,nonword
239,1,C,1,Lentiform Loewenfeld,3.3.8,c,628.5528999998933,10,nonword
240,1,C,5,Lentiform Loewenfeld,3.3.8,c,622.6568999999436,10,nonword
241,1,M,2,Lentiform Loewenfeld,3.3.8,m,667.6067000000039,10,word
242,1,M,7,Lentiform Loewenfeld,3.3.8,m,853.1857999999775,10,word
243,1,M,4,Lentiform Loewenfeld,3.3.8,m,374.09109999996144,10,word
244,0,C,2,Lentiform Loewenfeld,3.3.8,m,358.218600000022,10,nonword
245,1,C,6,Lentiform Loewenfeld,3.3.8,c,548.0272000000114,10,nonword
246,1,C,2,Lentiform Loewenfeld,3.3.8,c,537.4592999999877,10,nonword
247,1,M,6,Lentiform Loewenfeld,3.3.8,m,628.7480000000214,10,word
248,1,C,5,Lentiform Loewenfeld,3.3.8,c,505.3514000000432,10,nonword
249,1,M,7,Lentiform Loewenfeld,3.3.8,m,588.454800000065,10,word
250,1,C,6,Lentiform Loewenfeld,3.3.8,c,481.1979000000283,10,nonword
251,0,M,4,Lentiform Loewenfeld,3.3.8,c,422.31160000001546,10,word
252,1,C,6,Lentiform Loewenfeld,3.3.8,c,672.4359000000404,10,nonword
253,0,M,5,Lentiform Loewenfeld,3.3.8,c,537.5050000000047,10,word
254,1,C,6,Lentiform Loewenfeld,3.3.8,c,570.4481000000378,10,nonword
255,1,M,1,Lentiform Loewenfeld,3.3.8,m,485.5426000000444,10,word
256,1,M,3,Lentiform Loewenfeld,3.3.8,m,471.12810000008903,10,word
257,1,C,1,Lentiform Loewenfeld,3.3.8,c,615.9825999999885,10,nonword
258,1,M,3,Lentiform Loewenfeld,3.3.8,m,406.5584000000963,10,word
259,1,C,2,Lentiform Loewenfeld,3.3.8,c,704.402599999914,10,nonword
260,1,M,5,Lentiform Loewenfeld,3.3.8,m,413.7587999999523,10,word
261,1,M,1,Lentiform Loewenfeld,3.3.8,m,412.423300000024,10,word
262,1,C,5,Lentiform Loewenfeld,3.3.8,c,604.5357999999542,10,nonword
263,1,M,3,Lentiform Loewenfeld,3.3.8,m,387.4429999999702,10,word
264,1,M,4,Lentiform Loewenfeld,3.3.8,m,493.2294000000693,10,word
265,1,M,6,Lentiform Loewenfeld,3.3.8,m,391.9889999999432,10,word
266,1,M,7,Lentiform Loewenfeld,3.3.8,m,361.3305999999866,10,word
267,1,C,5,Lentiform Loewenfeld,3.3.8,c,485.1297000000486,10,nonword
268,1,C,5,Lentiform Loewenfeld,3.3.8,c,498.7534999999916,10,nonword
269,1,M,2,Lentiform Loewenfeld,3.3.8,m,549.1629999998258,10,word
270,1,M,1,Lentiform Loewenfeld,3.3.8,m,498.6456000000471,10,word
271,1,M,2,Lentiform Loewenfeld,3.3.8,m,546.0580000000773,10,word
272,1,C,4,Lentiform Loewenfeld,3.3.8,c,509.3828999999678,10,nonword
273,1,C,7,Lentiform Loewenfeld,3.3.8,c,535.4736000000266,10,nonword
274,1,C,2,Lentiform Loewenfeld,3.3.8,c,551.9117000000551,10,nonword
275,1,M,2,Lentiform Loewenfeld,3.3.8,m,555.8431999998866,10,word
276,1,M,1,Lentiform Loewenfeld,3.3.8,m,407.95810000016354,10,word
277,1,C,7,Lentiform Loewenfeld,3.3.8,c,567.2615000000224,10,nonword
278,1,C,7,Lentiform Loewenfeld,3.3.8,c,519.0292999999365,10,nonword
279,1,M,2,Lentiform Loewenfeld,3.3.8,m,475.4511000000639,10,word
280,0,C,1,Lentiform Loewenfeld,3.3.8,m,364.5806999999332,10,nonword
281,1,M,3,Lentiform Loewenfeld,3.3.8,m,588.0113000000129,10,word
282,1,C,5,Lentiform Loewenfeld,3.3.8,c,446.78190000006,10,nonword
283,0,M,5,Lentiform Loewenfeld,3.3.8,c,483.38059999991674,10,word
284,1,C,3,Lentiform Loewenfeld,3.3.8,c,553.8454999999376,10,nonword
285,1,C,1,Lentiform Loewenfeld,3.3.8,c,588.1506999998819,10,nonword
286,1,M,7,Lentiform Loewenfeld,3.3.8,m,474.4054999999935,10,word
287,1,C,6,Lentiform Loewenfeld,3.3.8,c,480.05219999991823,10,nonword
288,1,M,2,Lentiform Loewenfeld,3.3.8,m,404.97770000004675,10,word
289,1,C,1,Lentiform Loewenfeld,3.3.8,c,513.0930999998236,10,nonword
290,1,C,5,Lentiform Loewenfeld,3.3.8,c,561.9160000000848,10,nonword
291,1,M,6,Lentiform Loewenfeld,3.3.8,m,478.2258000000147,10,word
292,1,M,6,Lentiform Loewenfeld,3.3.8,m,371.27430000004824,10,word
293,0,M,7,Lentiform Loewenfeld,3.3.8,c,708.2329000000609,10,word
294,1,M,1,Lentiform Loewenfeld,3.3.8,m,587.8218999999808,10,word
295,0,C,1,Lentiform Loewenfeld,3.3.8,m,472.7361000000965,10,nonword
296,1,M,2,Lentiform Loewenfeld,3.3.8,m,462.0445000000764,10,word
297,1,M,6,Lentiform Loewenfeld,3.3.8,m,444.99769999994896,10,word
298,1,M,1,Lentiform Loewenfeld,3.3.8,m,505.1052000001073,10,word
299,0,M,3,Lentiform Loewenfeld,3.3.8,c,594.2202999999281,10,word
300,1,C,5,Lentiform Loewenfeld,3.3.8,c,589.6769000000786,10,nonword
301,1,C,6,Lentiform Loewenfeld,3.3.8,c,567.7777000000933,10,nonword
302,1,M,7,Lentiform Loewenfeld,3.3.8,m,456.7328999998281,10,word
303,0,C,4,Lentiform Loewenfeld,3.3.8,m,799.8678999999538,10,nonword
304,1,C,1,Lentiform Loewenfeld,3.3.8,c,635.7646999999415,10,nonword
305,1,C,5,Lentiform Loewenfeld,3.3.8,c,554.7309000000823,10,nonword
306,1,M,1,Lentiform Loewenfeld,3.3.8,m,946.8056000000797,10,word
307,1,M,2,Lentiform Loewenfeld,3.3.8,m,480.87450000003446,10,word
308,1,M,4,Lentiform Loewenfeld,3.3.8,m,384.3381999999983,10,word
309,1,M,2,Lentiform Loewenfeld,3.3.8,m,380.28329999989364,10,word
310,0,C,7,Lentiform Loewenfeld,3.3.8,m,634.1071000000229,10,nonword
311,1,M,4,Lentiform Loewenfeld,3.3.8,m,564.2282000000123,10,word
312,1,M,2,Lentiform Loewenfeld,3.3.8,m,405.4559999998892,10,word
313,0,C,3,Lentiform Loewenfeld,3.3.8,m,342.40869999991264,10,nonword
314,1,C,2,Lentiform Loewenfeld,3.3.8,c,628.250800000038,10,nonword
315,1,M,1,Lentiform Loewenfeld,3.3.8,m,614.3029999999562,10,word
316,1,M,5,Lentiform Loewenfeld,3.3.8,m,468.7237999998033,10,word
317,1,M,7,Lentiform Loewenfeld,3.3.8,m,338.862800000119,10,word
318,1,C,1,Lentiform Loewenfeld,3.3.8,c,537.3201999999583,10,nonword
319,1,C,7,Lentiform Loewenfeld,3.3.8,c,521.6088999998756,10,nonword
320,1,C,2,Lentiform Loewenfeld,3.3.8,c,537.8737999998266,10,nonword
321,1,C,4,Lentiform Loewenfeld,3.3.8,c,560.4663000000874,10,nonword
322,1,M,7,Lentiform Loewenfeld,3.3.8,m,583.110400000005,10,word
323,1,C,7,Lentiform Loewenfeld,3.3.8,c,573.8617999999551,10,nonword
324,1,C,4,Lentiform Loewenfeld,3.3.8,c,617.466199999908,10,nonword
325,0,C,4,Lentiform Loewenfeld,3.3.8,m,627.5750000001863,10,nonword
326,1,M,4,Lentiform Loewenfeld,3.3.8,m,672.1555999998236,10,word
327,1,C,1,Lentiform Loewenfeld,3.3.8,c,740.7689000000246,10,nonword
328,1,C,4,Lentiform Loewenfeld,3.3.8,c,533.6600000000326,10,nonword
329,1,C,1,Lentiform Loewenfeld,3.3.8,c,683.5935000000754,10,nonword
330,1,C,2,Lentiform Loewenfeld,3.3.8,c,504.02719999977853,10,nonword
331,0,M,5,Lentiform Loewenfeld,3.3.8,c,534.9610000000102,10,word
332,1,M,5,Lentiform Loewenfeld,3.3.8,m,504.60229999991134,10,word
333,1,C,6,Lentiform Loewenfeld,3.3.8,c,580.5516999997199,10,nonword
334,1,C,1,Lentiform Loewenfeld,3.3.8,c,1029.7959999998566,10,nonword
335,1,C,3,Lentiform Loewenfeld,3.3.8,c,530.8510999999708,10,nonword
336,1,C,7,Lentiform Loewenfeld,3.3.8,c,543.2794999998296,10,nonword
337,1,M,4,Lentiform Loewenfeld,3.3.8,m,664.7112999999663,10,word
338,0,C,6,Lentiform Loewenfeld,3.3.8,m,410.78080000006594,10,nonword
339,0,C,3,Lentiform Loewenfeld,3.3.8,m,550.1302000001306,10,nonword
340,1,C,5,Lentiform Loewenfeld,3.3.8,c,527.5357000000076,10,nonword
341,1,M,6,Lentiform Loewenfeld,3.3.8,m,570.3022000001511,10,word
342,1,C,2,Lentiform Loewenfeld,3.3.8,c,521.9109999999637,10,nonword
343,0,C,2,Lentiform Loewenfeld,3.3.8,m,369.3515000002226,10,nonword
344,1,M,2,Lentiform Loewenfeld,3.3.8,m,551.6637999998638,10,word
345,1,M,3,Lentiform Loewenfeld,3.3.8,m,481.9204000001773,10,word
346,1,C,7,Lentiform Loewenfeld,3.3.8,c,568.3809000001056,10,nonword
347,1,C,5,Lentiform Loewenfeld,3.3.8,c,500.8119000000879,10,nonword
348,1,C,3,Lentiform Loewenfeld,3.3.8,c,470.7279999998864,10,nonword
349,1,M,5,Lentiform Loewenfeld,3.3.8,m,488.5507000000216,10,word
350,1,C,7,Lentiform Loewenfeld,3.3.8,c,614.6130999999586,10,nonword
351,1,M,6,Lentiform Loewenfeld,3.3.8,m,511.5919000001159,10,word
352,1,C,3,Lentiform Loewenfeld,3.3.8,c,579.2964000001084,10,nonword
353,1,M,2,Lentiform Loewenfeld,3.3.8,m,549.7494999998016,10,word
354,1,M,5,Lentiform Loewenfeld,3.3.8,m,439.00620000017807,10,word
355,1,M,1,Lentiform Loewenfeld,3.3.8,m,535.8212000000058,10,word
356,1,C,4,Lentiform Loewenfeld,3.3.8,c,708.9065999999875,10,nonword
357,1,C,2,Lentiform Loewenfeld,3.3.8,c,460.47400000004563,10,nonword
358,1,C,4,Lentiform Loewenfeld,3.3.8,c,490.0922000000719,10,nonword
359,1,M,4,Lentiform Loewenfeld,3.3.8,m,614.8726000000024,10,word
360,1,C,4,Lentiform Loewenfeld,3.3.8,c,853.3077000000048,10,nonword
361,1,C,5,Lentiform Loewenfeld,3.3.8,c,1029.3746000000974,10,nonword
362,1,M,4,Lentiform Loewenfeld,3.3.8,m,402.4415000000736,10,word
363,1,C,7,Lentiform Loewenfeld,3.3.8,c,517.2623000000603,10,nonword
364,1,C,7,Lentiform Loewenfeld,3.3.8,c,464.1820000000298,10,nonword
365,1,M,4,Lentiform Loewenfeld,3.3.8,m,568.7530999999726,10,word
366,1,M,7,Lentiform Loewenfeld,3.3.8,m,448.1952999997884,10,word
367,1,M,2,Lentiform Loewenfeld,3.3.8,m,344.011499999906,10,word
368,0,C,1,Lentiform Loewenfeld,3.3.8,m,402.63280000013765,10,nonword
369,1,C,4,Lentiform Loewenfeld,3.3.8,c,555.784100000048,10,nonword
370,1,M,6,Lentiform Loewenfeld,3.3.8,m,593.1855000000214,10,word
371,1,C,7,Lentiform Loewenfeld,3.3.8,c,573.3261999997776,10,nonword
372,1,C,6,Lentiform Loewenfeld,3.3.8,c,552.7611000001198,10,nonword
373,1,M,6,Lentiform Loewenfeld,3.3.8,m,559.3677999998908,10,word
374,1,C,5,Lentiform Loewenfeld,3.3.8,c,504.11699999985285,10,nonword
375,1,C,1,Lentiform Loewenfeld,3.3.8,c,501.56019999994896,10,nonword
376,1,M,1,Lentiform Loewenfeld,3.3.8,m,545.6772000001511,10,word
377,1,C,4,Lentiform Loewenfeld,3.3.8,c,479.8051999999443,10,nonword
378,0,C,2,Lentiform Loewenfeld,3.3.8,m,638.0866999999853,10,nonword
379,0,M,4,Lentiform Loewenfeld,3.3.8,c,452.8251000000164,10,word
380,1,C,4,Lentiform Loewenfeld,3.3.8,c,585.1600000000326,10,nonword
381,1,M,1,Lentiform Loewenfeld,3.3.8,m,494.2373999998672,10,word
382,1,C,4,Lentiform Loewenfeld,3.3.8,c,527.3576000001049,10,nonword
383,1,C,3,Lentiform Loewenfeld,3.3.8,c,641.9730000001146,10,nonword
384,1,C,2,Lentiform Loewenfeld,3.3.8,c,542.5397000000812,10,nonword
385,1,M,5,Lentiform Loewenfeld,3.3.8,m,674.3316999999806,10,word
386,1,M,1,Lentiform Loewenfeld,3.3.8,m,473.9149000000907,10,word
387,1,M,1,Lentiform Loewenfeld,3.3.8,m,443.67210000008345,10,word
388,0,M,7,Lentiform Loewenfeld,3.3.8,c,588.6538000002038,10,word
389,1,C,6,Lentiform Loewenfeld,3.3.8,c,1190.0775000001304,10,nonword
390,1,C,4,Lentiform Loewenfeld,3.3.8,c,651.9291999998968,10,nonword
391,1,M,4,Lentiform Loewenfeld,3.3.8,m,1156.9873999999836,10,word
392,1,C,7,Lentiform Loewenfeld,3.3.8,c,582.2134999999544,10,nonword
393,1,C,2,Lentiform Loewenfeld,3.3.8,c,472.1541000000434,10,nonword
394,1,M,4,Lentiform Loewenfeld,3.3.8,m,489.2956000000704,10,word
395,1,M,7,Lentiform Loewenfeld,3.3.8,m,564.6943999999203,10,word
396,1,M,7,Lentiform Loewenfeld,3.3.8,m,399.6199000000488,10,word
397,1,M,3,Lentiform Loewenfeld,3.3.8,m,439.4120999999577,10,word
398,1,C,6,Lentiform Loewenfeld,3.3.8,c,439.69270000013057,10,nonword
399,1,C,4,Lentiform Loewenfeld,3.3.8,c,506.81099999987055,10,nonword
400,1,C,2,Lentiform Loewenfeld,3.3.8,c,408.5745000001043,10,nonword
401,1,C,1,Lentiform Loewenfeld,3.3.8,c,512.5199999999022,10,nonword
402,1,M,4,Lentiform Loewenfeld,3.3.8,m,509.62229999993,10,word
403,1,C,7,Lentiform Loewenfeld,3.3.8,c,473.73219999996945,10,nonword
404,1,M,4,Lentiform Loewenfeld,3.3.8,m,467.16830000001937,10,word
405,1,M,5,Lentiform Loewenfeld,3.3.8,m,435.29159999999683,10,word
406,1,M,4,Lentiform Loewenfeld,3.3.8,m,363.90540000016335,10,word
407,1,M,5,Lentiform Loewenfeld,3.3.8,m,355.6823999999324,10,word
408,0,C,3,Lentiform Loewenfeld,3.3.8,m,415.52679999987595,10,nonword
409,1,C,3,Lentiform Loewenfeld,3.3.8,c,597.951699999976,10,nonword
410,1,C,5,Lentiform Loewenfeld,3.3.8,c,659.5466999998316,10,nonword
411,1,C,5,Lentiform Loewenfeld,3.3.8,c,730.6474000001326,10,nonword
412,1,M,3,Lentiform Loewenfeld,3.3.8,m,642.9597000000067,10,word
413,1,C,7,Lentiform Loewenfeld,3.3.8,c,546.6697000000859,10,nonword
414,1,M,6,Lentiform Loewenfeld,3.3.8,m,412.737000000081,10,word
415,0,M,4,Lentiform Loewenfeld,3.3.8,c,686.3837000000058,10,word
416,1,M,2,Lentiform Loewenfeld,3.3.8,m,526.153399999952,10,word
417,1,C,6,Lentiform Loewenfeld,3.3.8,c,779.2445999999763,10,nonword
418,1,C,5,Lentiform Loewenfeld,3.3.8,c,559.4962000001688,10,nonword
419,1,C,2,Lentiform Loewenfeld,3.3.8,c,652.3005999998422,10,nonword
