Unnamed: 0,correct_keyboard_response_1,correct_response,flanker_condition,opensesame_codename,opensesame_version,response_keyboard_response_1,response_time_keyboard_response_1,subject_nr,target_type
0,1,C,5,Lentiform Loewenfeld,3.3.8,c,804.3176999999705,30,nonword
1,1,M,6,Lentiform Loewenfeld,3.3.8,m,706.371100000033,30,word
2,1,M,4,Lentiform Loewenfeld,3.3.8,m,511.6184999999532,30,word
3,1,M,6,Lentiform Loewenfeld,3.3.8,m,575.2205000000249,30,word
4,0,M,4,Lentiform Loewenfeld,3.3.8,c,685.3466999999946,30,word
5,1,C,6,Lentiform Loewenfeld,3.3.8,c,552.5912000000244,30,nonword
6,0,C,7,Lentiform Loewenfeld,3.3.8,m,561.5185000000056,30,nonword
7,1,C,2,Lentiform Loewenfeld,3.3.8,c,519.9698000000208,30,nonword
8,1,M,5,Lentiform Loewenfeld,3.3.8,m,798.064400000032,30,word
9,1,M,5,Lentiform Loewenfeld,3.3.8,m,514.1798000000417,30,word
10,1,C,3,Lentiform Loewenfeld,3.3.8,c,519.4370000000054,30,nonword
11,1,M,4,Lentiform Loewenfeld,3.3.8,m,522.3869000000414,30,word
12,1,M,1,Lentiform Loewenfeld,3.3.8,m,534.6688999999897,30,word
13,1,C,4,Lentiform Loewenfeld,3.3.8,c,530.6341999999713,30,nonword
14,0,C,6,Lentiform Loewenfeld,3.3.8,m,450.93150000006426,30,nonword
15,1,M,5,Lentiform Loewenfeld,3.3.8,m,542.0574000000197,30,word
16,1,M,7,Lentiform Loewenfeld,3.3.8,m,507.112199999945,30,word
17,1,M,2,Lentiform Loewenfeld,3.3.8,m,549.7576999999874,30,word
18,1,M,4,Lentiform Loewenfeld,3.3.8,m,488.3501999999571,30,word
19,1,C,6,Lentiform Loewenfeld,3.3.8,c,582.3064000000013,30,nonword
20,1,M,5,Lentiform Loewenfeld,3.3.8,m,584.2400999999954,30,word
21,1,M,7,Lentiform Loewenfeld,3.3.8,m,554.7007999999914,30,word
22,1,C,1,Lentiform Loewenfeld,3.3.8,c,587.2748999999603,30,nonword
23,1,C,2,Lentiform Loewenfeld,3.3.8,c,566.2038000000175,30,nonword
24,1,C,7,Lentiform Loewenfeld,3.3.8,c,549.4631000000518,30,nonword
25,0,C,3,Lentiform Loewenfeld,3.3.8,m,654.2369999999937,30,nonword
26,1,M,6,Lentiform Loewenfeld,3.3.8,m,589.4863000000187,30,word
27,1,M,4,Lentiform Loewenfeld,3.3.8,m,577.437200000044,30,word
28,1,M,7,Lentiform Loewenfeld,3.3.8,m,602.0350999999791,30,word
29,1,M,5,Lentiform Loewenfeld,3.3.8,m,471.80279999997583,30,word
30,1,C,5,Lentiform Loewenfeld,3.3.8,c,574.2601000000141,30,nonword
31,1,M,6,Lentiform Loewenfeld,3.3.8,m,526.1852999999828,30,word
32,1,C,2,Lentiform Loewenfeld,3.3.8,c,674.4895000000251,30,nonword
33,1,C,4,Lentiform Loewenfeld,3.3.8,c,515.7388999999966,30,nonword
34,1,M,1,Lentiform Loewenfeld,3.3.8,m,564.6664000000164,30,word
35,1,C,7,Lentiform Loewenfeld,3.3.8,c,521.8093999999983,30,nonword
36,0,M,5,Lentiform Loewenfeld,3.3.8,c,570.9070000000647,30,word
37,1,C,3,Lentiform Loewenfeld,3.3.8,c,623.6708999999973,30,nonword
38,1,C,2,Lentiform Loewenfeld,3.3.8,c,969.7791999999608,30,nonword
39,1,C,1,Lentiform Loewenfeld,3.3.8,c,688.4959000000381,30,nonword
40,1,M,2,Lentiform Loewenfeld,3.3.8,m,547.9139999999024,30,word
41,1,C,1,Lentiform Loewenfeld,3.3.8,c,515.8322000000044,30,nonword
42,1,M,1,Lentiform Loewenfeld,3.3.8,m,653.1006000000343,30,word
43,1,M,3,Lentiform Loewenfeld,3.3.8,m,498.5640999999887,30,word
44,1,C,5,Lentiform Loewenfeld,3.3.8,c,570.4788999999291,30,nonword
45,1,M,6,Lentiform Loewenfeld,3.3.8,m,566.9196000000229,30,word
46,1,C,2,Lentiform Loewenfeld,3.3.8,c,556.707800000062,30,nonword
47,1,C,7,Lentiform Loewenfeld,3.3.8,c,683.6492999999609,30,nonword
48,1,C,1,Lentiform Loewenfeld,3.3.8,c,503.9406000000017,30,nonword
49,0,C,6,Lentiform Loewenfeld,3.3.8,m,476.23649999994086,30,nonword
50,1,M,4,Lentiform Loewenfeld,3.3.8,m,535.5043000000005,30,word
51,1,M,4,Lentiform Loewenfeld,3.3.8,m,490.76210000002175,30,word
52,1,M,1,Lentiform Loewenfeld,3.3.8,m,555.8565999999992,30,word
53,1,C,5,Lentiform Loewenfeld,3.3.8,c,531.2828000000154,30,nonword
54,1,M,6,Lentiform Loewenfeld,3.3.8,m,917.2305000000051,30,word
55,1,C,4,Lentiform Loewenfeld,3.3.8,c,612.9605000000156,30,nonword
56,1,M,6,Lentiform Loewenfeld,3.3.8,m,580.0530000000435,30,word
57,1,M,5,Lentiform Loewenfeld,3.3.8,m,499.3125,30,word
58,1,C,7,Lentiform Loewenfeld,3.3.8,c,503.0165000000852,30,nonword
59,1,C,1,Lentiform Loewenfeld,3.3.8,c,511.8381999999692,30,nonword
60,1,C,6,Lentiform Loewenfeld,3.3.8,c,542.8018000000448,30,nonword
61,1,C,4,Lentiform Loewenfeld,3.3.8,c,769.3879000000015,30,nonword
62,1,M,5,Lentiform Loewenfeld,3.3.8,m,444.79470000002766,30,word
63,1,M,1,Lentiform Loewenfeld,3.3.8,m,439.9406000000017,30,word
64,1,M,5,Lentiform Loewenfeld,3.3.8,m,362.35090000004857,30,word
65,1,M,3,Lentiform Loewenfeld,3.3.8,m,351.4842999999528,30,word
66,0,C,5,Lentiform Loewenfeld,3.3.8,m,376.7600000000093,30,nonword
67,1,M,7,Lentiform Loewenfeld,3.3.8,m,513.1007999999856,30,word
68,1,M,3,Lentiform Loewenfeld,3.3.8,m,476.3907000000472,30,word
69,1,C,7,Lentiform Loewenfeld,3.3.8,c,523.193100000004,30,nonword
70,1,C,1,Lentiform Loewenfeld,3.3.8,c,719.7463999999745,30,nonword
71,1,C,4,Lentiform Loewenfeld,3.3.8,c,530.6389999999956,30,nonword
72,1,C,3,Lentiform Loewenfeld,3.3.8,c,892.9182000000728,30,nonword
73,1,M,6,Lentiform Loewenfeld,3.3.8,m,585.8196999999927,30,word
74,1,C,4,Lentiform Loewenfeld,3.3.8,c,560.7269999999553,30,nonword
75,1,M,4,Lentiform Loewenfeld,3.3.8,m,568.8310999999521,30,word
76,1,M,4,Lentiform Loewenfeld,3.3.8,m,497.09699999995064,30,word
77,1,C,5,Lentiform Loewenfeld,3.3.8,c,557.7370999999694,30,nonword
78,1,C,6,Lentiform Loewenfeld,3.3.8,c,608.9920999999158,30,nonword
79,1,C,5,Lentiform Loewenfeld,3.3.8,c,551.0308000000659,30,nonword
80,1,C,1,Lentiform Loewenfeld,3.3.8,c,548.1582000000635,30,nonword
81,1,M,7,Lentiform Loewenfeld,3.3.8,m,505.58519999991404,30,word
82,1,C,1,Lentiform Loewenfeld,3.3.8,c,507.2061999999569,30,nonword
83,1,M,3,Lentiform Loewenfeld,3.3.8,m,544.3240000000224,30,word
84,1,M,4,Lentiform Loewenfeld,3.3.8,m,484.40629999991506,30,word
85,0,M,5,Lentiform Loewenfeld,3.3.8,c,556.8908999999985,30,word
86,1,M,3,Lentiform Loewenfeld,3.3.8,m,532.9890999999479,30,word
87,1,C,3,Lentiform Loewenfeld,3.3.8,c,522.4018000000506,30,nonword
88,1,C,4,Lentiform Loewenfeld,3.3.8,c,544.1878000000725,30,nonword
89,1,M,4,Lentiform Loewenfeld,3.3.8,m,519.525100000028,30,word
90,1,C,3,Lentiform Loewenfeld,3.3.8,c,491.9224000000395,30,nonword
91,1,C,3,Lentiform Loewenfeld,3.3.8,c,593.2386999999289,30,nonword
92,1,M,3,Lentiform Loewenfeld,3.3.8,m,541.4632999999449,30,word
93,1,C,1,Lentiform Loewenfeld,3.3.8,c,504.38180000003194,30,nonword
94,1,M,3,Lentiform Loewenfeld,3.3.8,m,630.2141999999876,30,word
95,1,M,7,Lentiform Loewenfeld,3.3.8,m,822.9490999999689,30,word
96,1,M,5,Lentiform Loewenfeld,3.3.8,m,567.6505999999936,30,word
97,1,M,7,Lentiform Loewenfeld,3.3.8,m,537.319300000032,30,word
98,1,C,5,Lentiform Loewenfeld,3.3.8,c,503.5262000000221,30,nonword
99,1,C,1,Lentiform Loewenfeld,3.3.8,c,599.02290000004,30,nonword
100,1,M,2,Lentiform Loewenfeld,3.3.8,m,527.7652000000235,30,word
101,1,C,2,Lentiform Loewenfeld,3.3.8,c,572.0410999999731,30,nonword
102,1,C,4,Lentiform Loewenfeld,3.3.8,c,583.1245000000927,30,nonword
103,1,C,2,Lentiform Loewenfeld,3.3.8,c,698.5561999999918,30,nonword
104,1,C,5,Lentiform Loewenfeld,3.3.8,c,603.6713000000454,30,nonword
105,1,M,5,Lentiform Loewenfeld,3.3.8,m,505.5486000000383,30,word
106,1,M,2,Lentiform Loewenfeld,3.3.8,m,516.4821999999112,30,word
107,1,C,6,Lentiform Loewenfeld,3.3.8,c,558.4710999999079,30,nonword
108,1,C,5,Lentiform Loewenfeld,3.3.8,c,544.7570000000414,30,nonword
109,1,M,3,Lentiform Loewenfeld,3.3.8,m,494.961900000053,30,word
110,1,M,3,Lentiform Loewenfeld,3.3.8,m,503.46669999998994,30,word
111,1,C,7,Lentiform Loewenfeld,3.3.8,c,502.39120000007097,30,nonword
112,1,M,1,Lentiform Loewenfeld,3.3.8,m,473.6736999999848,30,word
113,1,C,6,Lentiform Loewenfeld,3.3.8,c,490.766100000008,30,nonword
114,1,C,3,Lentiform Loewenfeld,3.3.8,c,729.5739999999641,30,nonword
115,1,M,2,Lentiform Loewenfeld,3.3.8,m,490.82790000003297,30,word
116,1,C,7,Lentiform Loewenfeld,3.3.8,c,581.742799999949,30,nonword
117,1,C,6,Lentiform Loewenfeld,3.3.8,c,836.0107000000426,30,nonword
118,1,C,2,Lentiform Loewenfeld,3.3.8,c,534.4351000000024,30,nonword
119,1,C,6,Lentiform Loewenfeld,3.3.8,c,487.67420000000857,30,nonword
120,1,M,5,Lentiform Loewenfeld,3.3.8,m,537.6059000000823,30,word
121,1,M,1,Lentiform Loewenfeld,3.3.8,m,542.0929000001051,30,word
122,1,C,4,Lentiform Loewenfeld,3.3.8,c,534.1505999999936,30,nonword
123,1,M,1,Lentiform Loewenfeld,3.3.8,m,607.0949999999721,30,word
124,1,C,5,Lentiform Loewenfeld,3.3.8,c,485.04529999993974,30,nonword
125,1,M,5,Lentiform Loewenfeld,3.3.8,m,462.84600000007777,30,word
126,1,C,2,Lentiform Loewenfeld,3.3.8,c,468.6167000000132,30,nonword
127,1,M,6,Lentiform Loewenfeld,3.3.8,m,472.27029999997467,30,word
128,1,C,3,Lentiform Loewenfeld,3.3.8,c,511.0246000000625,30,nonword
129,1,M,6,Lentiform Loewenfeld,3.3.8,m,492.57890000002226,30,word
130,0,M,6,Lentiform Loewenfeld,3.3.8,c,615.3641000001226,30,word
131,1,M,7,Lentiform Loewenfeld,3.3.8,m,377.1790000000037,30,word
132,0,M,4,Lentiform Loewenfeld,3.3.8,c,721.5816999999806,30,word
133,1,C,1,Lentiform Loewenfeld,3.3.8,c,710.3506000000052,30,nonword
134,1,M,7,Lentiform Loewenfeld,3.3.8,m,521.2974000000395,30,word
135,1,M,2,Lentiform Loewenfeld,3.3.8,m,492.2371999999741,30,word
136,1,M,2,Lentiform Loewenfeld,3.3.8,m,521.8218999999808,30,word
137,1,C,4,Lentiform Loewenfeld,3.3.8,c,522.837600000028,30,nonword
138,0,C,2,Lentiform Loewenfeld,3.3.8,m,571.0593999999692,30,nonword
139,1,C,7,Lentiform Loewenfeld,3.3.8,c,544.8788000000059,30,nonword
140,1,M,2,Lentiform Loewenfeld,3.3.8,m,614.8005000000121,30,word
141,1,C,7,Lentiform Loewenfeld,3.3.8,c,705.1206000000238,30,nonword
142,1,M,3,Lentiform Loewenfeld,3.3.8,m,660.6285000000498,30,word
143,1,M,3,Lentiform Loewenfeld,3.3.8,m,590.2442000000738,30,word
144,1,C,2,Lentiform Loewenfeld,3.3.8,c,571.1942000000854,30,nonword
145,1,M,4,Lentiform Loewenfeld,3.3.8,m,525.0126999999629,30,word
146,1,C,5,Lentiform Loewenfeld,3.3.8,c,713.8964000000851,30,nonword
147,1,M,3,Lentiform Loewenfeld,3.3.8,m,554.3448000000208,30,word
148,1,M,6,Lentiform Loewenfeld,3.3.8,m,801.0914999999804,30,word
149,1,C,4,Lentiform Loewenfeld,3.3.8,c,625.273600000015,30,nonword
150,1,M,4,Lentiform Loewenfeld,3.3.8,m,556.0941999999923,30,word
151,1,C,1,Lentiform Loewenfeld,3.3.8,c,576.040800000017,30,nonword
152,1,C,3,Lentiform Loewenfeld,3.3.8,c,611.966999999946,30,nonword
153,1,C,7,Lentiform Loewenfeld,3.3.8,c,529.0515000000596,30,nonword
154,1,C,7,Lentiform Loewenfeld,3.3.8,c,537.7005000000354,30,nonword
155,1,M,4,Lentiform Loewenfeld,3.3.8,m,526.818499999994,30,word
156,1,M,6,Lentiform Loewenfeld,3.3.8,m,515.9271999999764,30,word
157,1,C,6,Lentiform Loewenfeld,3.3.8,c,924.8792999999714,30,nonword
158,1,C,2,Lentiform Loewenfeld,3.3.8,c,554.248499999987,30,nonword
159,1,C,5,Lentiform Loewenfeld,3.3.8,c,533.0340999999316,30,nonword
160,1,C,5,Lentiform Loewenfeld,3.3.8,c,524.7982000000775,30,nonword
161,1,M,4,Lentiform Loewenfeld,3.3.8,m,536.4045000000042,30,word
162,0,M,7,Lentiform Loewenfeld,3.3.8,c,517.1834000000381,30,word
163,1,M,7,Lentiform Loewenfeld,3.3.8,m,550.0412999999826,30,word
164,1,C,2,Lentiform Loewenfeld,3.3.8,c,515.7574000000022,30,nonword
165,1,M,3,Lentiform Loewenfeld,3.3.8,m,573.335299999977,30,word
166,1,M,5,Lentiform Loewenfeld,3.3.8,m,488.38979999994626,30,word
167,1,C,3,Lentiform Loewenfeld,3.3.8,c,607.5481999999029,30,nonword
168,1,C,4,Lentiform Loewenfeld,3.3.8,c,597.1292000000249,30,nonword
169,1,M,6,Lentiform Loewenfeld,3.3.8,m,726.3871000000509,30,word
170,1,C,2,Lentiform Loewenfeld,3.3.8,c,500.30830000003334,30,nonword
171,1,C,1,Lentiform Loewenfeld,3.3.8,c,662.751200000057,30,nonword
172,1,C,6,Lentiform Loewenfeld,3.3.8,c,573.3580000000075,30,nonword
173,1,M,7,Lentiform Loewenfeld,3.3.8,m,511.1210999999894,30,word
174,1,M,4,Lentiform Loewenfeld,3.3.8,m,516.5716999999713,30,word
175,1,M,3,Lentiform Loewenfeld,3.3.8,m,497.20409999997355,30,word
176,1,M,4,Lentiform Loewenfeld,3.3.8,m,585.1268000000273,30,word
177,1,C,6,Lentiform Loewenfeld,3.3.8,c,500.5884000000078,30,nonword
178,1,M,3,Lentiform Loewenfeld,3.3.8,m,562.6943999999785,30,word
179,1,M,2,Lentiform Loewenfeld,3.3.8,m,525.6107000000775,30,word
180,1,M,2,Lentiform Loewenfeld,3.3.8,m,535.741399999999,30,word
181,1,M,7,Lentiform Loewenfeld,3.3.8,m,380.4797000000836,30,word
182,1,C,5,Lentiform Loewenfeld,3.3.8,c,566.4334000000963,30,nonword
183,1,C,5,Lentiform Loewenfeld,3.3.8,c,504.75420000002487,30,nonword
184,1,M,4,Lentiform Loewenfeld,3.3.8,m,525.6942999999737,30,word
185,1,M,2,Lentiform Loewenfeld,3.3.8,m,927.6250000000582,30,word
186,1,C,6,Lentiform Loewenfeld,3.3.8,c,503.3877000001376,30,nonword
187,1,M,6,Lentiform Loewenfeld,3.3.8,m,449.63280000002123,30,word
188,1,C,4,Lentiform Loewenfeld,3.3.8,c,459.733499999973,30,nonword
189,1,M,3,Lentiform Loewenfeld,3.3.8,m,436.8745999999228,30,word
190,1,C,7,Lentiform Loewenfeld,3.3.8,c,517.287799999991,30,nonword
191,1,C,3,Lentiform Loewenfeld,3.3.8,c,512.6211000000476,30,nonword
192,1,C,7,Lentiform Loewenfeld,3.3.8,c,613.0357999999542,30,nonword
193,1,M,1,Lentiform Loewenfeld,3.3.8,m,419.46409999998286,30,word
194,1,M,5,Lentiform Loewenfeld,3.3.8,m,517.7509999999893,30,word
195,1,C,5,Lentiform Loewenfeld,3.3.8,c,579.3500000000349,30,nonword
196,1,M,2,Lentiform Loewenfeld,3.3.8,m,489.9637999999686,30,word
197,1,M,2,Lentiform Loewenfeld,3.3.8,m,573.6634000000195,30,word
198,1,C,3,Lentiform Loewenfeld,3.3.8,c,444.69100000010803,30,nonword
199,1,M,1,Lentiform Loewenfeld,3.3.8,m,500.35999999998603,30,word
200,1,C,6,Lentiform Loewenfeld,3.3.8,c,516.7957999999635,30,nonword
201,1,C,5,Lentiform Loewenfeld,3.3.8,c,490.200499999919,30,nonword
202,1,C,2,Lentiform Loewenfeld,3.3.8,c,526.5037000000593,30,nonword
203,1,C,5,Lentiform Loewenfeld,3.3.8,c,484.5885000000126,30,nonword
204,0,M,3,Lentiform Loewenfeld,3.3.8,c,417.3602999999421,30,word
205,1,M,2,Lentiform Loewenfeld,3.3.8,m,490.7885000000824,30,word
206,1,M,7,Lentiform Loewenfeld,3.3.8,m,497.406500000041,30,word
207,1,M,4,Lentiform Loewenfeld,3.3.8,m,478.0795999999391,30,word
208,1,C,4,Lentiform Loewenfeld,3.3.8,c,668.8514999999898,30,nonword
209,1,C,6,Lentiform Loewenfeld,3.3.8,c,489.39300000004005,30,nonword
210,1,M,1,Lentiform Loewenfeld,3.3.8,m,620.109800000093,30,word
211,1,C,5,Lentiform Loewenfeld,3.3.8,c,455.93370000005234,30,nonword
212,1,M,3,Lentiform Loewenfeld,3.3.8,m,507.1500999999698,30,word
213,1,C,3,Lentiform Loewenfeld,3.3.8,c,529.6132000000216,30,nonword
214,1,M,7,Lentiform Loewenfeld,3.3.8,m,554.2611999999499,30,word
215,1,M,5,Lentiform Loewenfeld,3.3.8,m,536.4585999998963,30,word
216,1,C,1,Lentiform Loewenfeld,3.3.8,c,525.9100000000326,30,nonword
217,1,C,1,Lentiform Loewenfeld,3.3.8,c,528.5142000000924,30,nonword
218,1,C,5,Lentiform Loewenfeld,3.3.8,c,455.77309999999125,30,nonword
219,1,C,4,Lentiform Loewenfeld,3.3.8,c,446.2521999999881,30,nonword
220,1,M,2,Lentiform Loewenfeld,3.3.8,m,527.032600000035,30,word
221,0,M,7,Lentiform Loewenfeld,3.3.8,c,545.4590999998618,30,word
222,1,M,6,Lentiform Loewenfeld,3.3.8,m,523.0534000000916,30,word
223,1,M,5,Lentiform Loewenfeld,3.3.8,m,522.0110000000568,30,word
224,1,C,1,Lentiform Loewenfeld,3.3.8,c,487.10269999993034,30,nonword
225,1,C,2,Lentiform Loewenfeld,3.3.8,c,526.2450000001118,30,nonword
226,1,M,6,Lentiform Loewenfeld,3.3.8,m,567.5045999998692,30,word
227,1,M,6,Lentiform Loewenfeld,3.3.8,m,547.3037999999942,30,word
228,1,M,2,Lentiform Loewenfeld,3.3.8,m,464.05830000003334,30,word
229,1,C,2,Lentiform Loewenfeld,3.3.8,c,623.4969000000274,30,nonword
230,1,C,7,Lentiform Loewenfeld,3.3.8,c,557.7944000000134,30,nonword
231,0,M,3,Lentiform Loewenfeld,3.3.8,c,466.9192000000039,30,word
232,1,C,3,Lentiform Loewenfeld,3.3.8,c,509.51919999998063,30,nonword
233,1,M,7,Lentiform Loewenfeld,3.3.8,m,529.1692000000039,30,word
234,1,C,3,Lentiform Loewenfeld,3.3.8,c,558.0420999999624,30,nonword
235,1,C,6,Lentiform Loewenfeld,3.3.8,c,611.8881999999285,30,nonword
236,1,M,5,Lentiform Loewenfeld,3.3.8,m,422.62369999999646,30,word
237,1,M,7,Lentiform Loewenfeld,3.3.8,m,493.594800000079,30,word
238,1,M,1,Lentiform Loewenfeld,3.3.8,m,605.8679000000702,30,word
239,1,M,2,Lentiform Loewenfeld,3.3.8,m,390.9517999999225,30,word
240,1,C,2,Lentiform Loewenfeld,3.3.8,c,587.3907000001054,30,nonword
241,1,C,6,Lentiform Loewenfeld,3.3.8,c,543.3250000000698,30,nonword
242,1,M,7,Lentiform Loewenfeld,3.3.8,m,619.4368999999715,30,word
243,1,C,7,Lentiform Loewenfeld,3.3.8,c,469.8649999999907,30,nonword
244,1,C,1,Lentiform Loewenfeld,3.3.8,c,498.13240000011865,30,nonword
245,1,C,2,Lentiform Loewenfeld,3.3.8,c,707.6001000000397,30,nonword
246,1,C,2,Lentiform Loewenfeld,3.3.8,c,631.8167999999132,30,nonword
247,1,M,1,Lentiform Loewenfeld,3.3.8,m,466.92319999996107,30,word
248,0,M,5,Lentiform Loewenfeld,3.3.8,c,489.5259000000078,30,word
249,1,C,4,Lentiform Loewenfeld,3.3.8,c,491.84639999992214,30,nonword
250,0,M,3,Lentiform Loewenfeld,3.3.8,c,601.966999999946,30,word
251,1,M,3,Lentiform Loewenfeld,3.3.8,m,535.7510000000475,30,word
252,1,C,7,Lentiform Loewenfeld,3.3.8,c,500.1202999999514,30,nonword
253,1,M,1,Lentiform Loewenfeld,3.3.8,m,514.5581000000238,30,word
254,1,C,3,Lentiform Loewenfeld,3.3.8,c,552.4518999999855,30,nonword
255,0,M,7,Lentiform Loewenfeld,3.3.8,c,589.9344999998575,30,word
256,1,M,7,Lentiform Loewenfeld,3.3.8,m,501.8912999999011,30,word
257,1,M,3,Lentiform Loewenfeld,3.3.8,m,483.4558000001125,30,word
258,1,M,7,Lentiform Loewenfeld,3.3.8,m,562.268400000059,30,word
259,1,C,7,Lentiform Loewenfeld,3.3.8,c,529.0769000001019,30,nonword
260,1,M,6,Lentiform Loewenfeld,3.3.8,m,575.2373000000371,30,word
261,0,M,1,Lentiform Loewenfeld,3.3.8,c,1220.312300000107,30,word
262,1,M,1,Lentiform Loewenfeld,3.3.8,m,711.6674999999814,30,word
263,1,C,1,Lentiform Loewenfeld,3.3.8,c,844.4100999998627,30,nonword
264,0,C,7,Lentiform Loewenfeld,3.3.8,m,768.9678000001004,30,nonword
265,1,C,3,Lentiform Loewenfeld,3.3.8,c,558.7604000000283,30,nonword
266,1,M,5,Lentiform Loewenfeld,3.3.8,m,568.0030000000261,30,word
267,1,M,3,Lentiform Loewenfeld,3.3.8,m,479.4320000000298,30,word
268,1,M,1,Lentiform Loewenfeld,3.3.8,m,454.07539999997243,30,word
269,1,C,1,Lentiform Loewenfeld,3.3.8,c,438.3503999999957,30,nonword
270,1,C,5,Lentiform Loewenfeld,3.3.8,c,501.9456999999238,30,nonword
271,1,C,4,Lentiform Loewenfeld,3.3.8,c,662.8368999999948,30,nonword
272,1,C,5,Lentiform Loewenfeld,3.3.8,c,666.3306999999331,30,nonword
273,1,M,4,Lentiform Loewenfeld,3.3.8,m,574.9421999998158,30,word
274,1,C,2,Lentiform Loewenfeld,3.3.8,c,480.856199999922,30,nonword
275,1,M,2,Lentiform Loewenfeld,3.3.8,m,524.2801000000909,30,word
276,1,C,4,Lentiform Loewenfeld,3.3.8,c,524.8987000000197,30,nonword
277,1,M,4,Lentiform Loewenfeld,3.3.8,m,741.3832999999868,30,word
278,1,M,6,Lentiform Loewenfeld,3.3.8,m,649.8279999999795,30,word
279,1,M,2,Lentiform Loewenfeld,3.3.8,m,549.6759000000311,30,word
280,1,M,5,Lentiform Loewenfeld,3.3.8,m,498.6107999999076,30,word
281,1,C,6,Lentiform Loewenfeld,3.3.8,c,517.874700000044,30,nonword
282,1,M,1,Lentiform Loewenfeld,3.3.8,m,776.9984000000404,30,word
283,1,C,5,Lentiform Loewenfeld,3.3.8,c,818.0539000000572,30,nonword
284,1,C,2,Lentiform Loewenfeld,3.3.8,c,527.6123000000371,30,nonword
285,1,C,1,Lentiform Loewenfeld,3.3.8,c,573.7545999998692,30,nonword
286,1,C,7,Lentiform Loewenfeld,3.3.8,c,554.6796000000322,30,nonword
287,1,M,2,Lentiform Loewenfeld,3.3.8,m,529.4641000000993,30,word
288,1,C,1,Lentiform Loewenfeld,3.3.8,c,522.0587000000523,30,nonword
289,1,M,2,Lentiform Loewenfeld,3.3.8,m,610.9892999998992,30,word
290,1,M,6,Lentiform Loewenfeld,3.3.8,m,494.06649999984074,30,word
291,1,M,7,Lentiform Loewenfeld,3.3.8,m,581.2033000001684,30,word
292,1,C,4,Lentiform Loewenfeld,3.3.8,c,630.983099999954,30,nonword
293,1,C,6,Lentiform Loewenfeld,3.3.8,c,585.0512999999337,30,nonword
294,1,C,2,Lentiform Loewenfeld,3.3.8,c,537.9956000001403,30,nonword
295,1,C,3,Lentiform Loewenfeld,3.3.8,c,428.6056000000099,30,nonword
296,1,M,7,Lentiform Loewenfeld,3.3.8,m,670.3659000000916,30,word
297,1,M,4,Lentiform Loewenfeld,3.3.8,m,458.1339000001317,30,word
298,1,M,3,Lentiform Loewenfeld,3.3.8,m,476.58640000002924,30,word
299,1,M,6,Lentiform Loewenfeld,3.3.8,m,442.0448000000324,30,word
300,1,C,2,Lentiform Loewenfeld,3.3.8,c,481.1775999998208,30,nonword
301,1,C,6,Lentiform Loewenfeld,3.3.8,c,673.9876999998232,30,nonword
302,0,M,4,Lentiform Loewenfeld,3.3.8,c,505.68249999999534,30,word
303,1,M,7,Lentiform Loewenfeld,3.3.8,m,536.6335000001127,30,word
304,1,C,6,Lentiform Loewenfeld,3.3.8,c,549.4510000000009,30,nonword
305,1,C,7,Lentiform Loewenfeld,3.3.8,c,471.3544000000693,30,nonword
306,1,C,7,Lentiform Loewenfeld,3.3.8,c,556.4482000001008,30,nonword
307,0,C,1,Lentiform Loewenfeld,3.3.8,m,567.8947999998927,30,nonword
308,1,M,1,Lentiform Loewenfeld,3.3.8,m,454.21329999994487,30,word
309,1,C,4,Lentiform Loewenfeld,3.3.8,c,476.1301999997813,30,nonword
310,1,M,2,Lentiform Loewenfeld,3.3.8,m,582.0613999998895,30,word
311,1,M,6,Lentiform Loewenfeld,3.3.8,m,689.6756000000751,30,word
312,0,M,2,Lentiform Loewenfeld,3.3.8,c,682.4738999999827,30,word
313,1,C,4,Lentiform Loewenfeld,3.3.8,c,667.5540999998339,30,nonword
314,1,C,5,Lentiform Loewenfeld,3.3.8,c,526.1618000000017,30,nonword
315,1,C,2,Lentiform Loewenfeld,3.3.8,c,528.0768999999855,30,nonword
316,0,M,6,Lentiform Loewenfeld,3.3.8,c,575.6928999997908,30,word
317,1,M,7,Lentiform Loewenfeld,3.3.8,m,479.3094000001438,30,word
318,1,M,4,Lentiform Loewenfeld,3.3.8,m,406.74760000023525,30,word
319,1,M,5,Lentiform Loewenfeld,3.3.8,m,432.1805999999633,30,word
320,1,C,7,Lentiform Loewenfeld,3.3.8,c,558.141200000071,30,nonword
321,1,C,3,Lentiform Loewenfeld,3.3.8,c,573.39300000004,30,nonword
322,1,M,1,Lentiform Loewenfeld,3.3.8,m,540.6692000000039,30,word
323,0,C,7,Lentiform Loewenfeld,3.3.8,m,686.9674000000814,30,nonword
324,1,C,3,Lentiform Loewenfeld,3.3.8,c,682.5474000001559,30,nonword
325,1,C,7,Lentiform Loewenfeld,3.3.8,c,539.3062000002246,30,nonword
326,1,C,4,Lentiform Loewenfeld,3.3.8,c,581.9435999998823,30,nonword
327,1,M,4,Lentiform Loewenfeld,3.3.8,m,754.0583999999799,30,word
328,1,M,5,Lentiform Loewenfeld,3.3.8,m,576.0966999999946,30,word
329,1,M,7,Lentiform Loewenfeld,3.3.8,m,527.8709999999264,30,word
330,1,M,2,Lentiform Loewenfeld,3.3.8,m,384.8322000000626,30,word
331,0,C,1,Lentiform Loewenfeld,3.3.8,m,408.63789999997243,30,nonword
332,1,C,7,Lentiform Loewenfeld,3.3.8,c,480.3854000000283,30,nonword
333,1,M,6,Lentiform Loewenfeld,3.3.8,m,616.5010000000475,30,word
334,1,C,6,Lentiform Loewenfeld,3.3.8,c,503.44270000001416,30,nonword
335,1,M,6,Lentiform Loewenfeld,3.3.8,m,570.5398999999743,30,word
336,1,M,5,Lentiform Loewenfeld,3.3.8,m,508.98769999993965,30,word
337,0,M,1,Lentiform Loewenfeld,3.3.8,c,509.95060000009835,30,word
338,1,M,2,Lentiform Loewenfeld,3.3.8,m,355.89320000004955,30,word
339,1,C,2,Lentiform Loewenfeld,3.3.8,c,559.967699999921,30,nonword
340,1,C,7,Lentiform Loewenfeld,3.3.8,c,488.74629999988247,30,nonword
341,1,M,2,Lentiform Loewenfeld,3.3.8,m,494.58419999980833,30,word
342,1,M,5,Lentiform Loewenfeld,3.3.8,m,562.8554999999469,30,word
343,1,M,7,Lentiform Loewenfeld,3.3.8,m,577.0368999998318,30,word
344,1,M,1,Lentiform Loewenfeld,3.3.8,m,574.4259000000311,30,word
345,1,C,4,Lentiform Loewenfeld,3.3.8,c,550.656799999997,30,nonword
346,1,M,1,Lentiform Loewenfeld,3.3.8,m,558.6445999998832,30,word
347,1,C,1,Lentiform Loewenfeld,3.3.8,c,657.0725000001257,30,nonword
348,1,M,6,Lentiform Loewenfeld,3.3.8,m,655.698499999824,30,word
349,0,M,4,Lentiform Loewenfeld,3.3.8,c,563.9161000000313,30,word
350,1,C,7,Lentiform Loewenfeld,3.3.8,c,507.1614000000991,30,nonword
351,1,C,6,Lentiform Loewenfeld,3.3.8,c,605.4871000000276,30,nonword
352,1,M,5,Lentiform Loewenfeld,3.3.8,m,553.204400000046,30,word
353,1,C,3,Lentiform Loewenfeld,3.3.8,c,508.47729999991134,30,nonword
354,1,C,1,Lentiform Loewenfeld,3.3.8,c,557.7202999999281,30,nonword
355,1,C,1,Lentiform Loewenfeld,3.3.8,c,623.6579999999376,30,nonword
356,1,M,4,Lentiform Loewenfeld,3.3.8,m,417.6032000001287,30,word
357,1,C,5,Lentiform Loewenfeld,3.3.8,c,504.74399999994785,30,nonword
358,1,M,3,Lentiform Loewenfeld,3.3.8,m,507.8276000000769,30,word
359,1,M,7,Lentiform Loewenfeld,3.3.8,m,423.17440000001807,30,word
360,1,C,4,Lentiform Loewenfeld,3.3.8,c,452.58970000001136,30,nonword
361,1,C,4,Lentiform Loewenfeld,3.3.8,c,454.04550000012387,30,nonword
362,1,M,2,Lentiform Loewenfeld,3.3.8,m,556.3383000000613,30,word
363,1,C,1,Lentiform Loewenfeld,3.3.8,c,496.2610000001732,30,nonword
364,1,M,6,Lentiform Loewenfeld,3.3.8,m,598.046100000036,30,word
365,1,M,1,Lentiform Loewenfeld,3.3.8,m,495.3586999999825,30,word
366,1,M,1,Lentiform Loewenfeld,3.3.8,m,678.7539999999572,30,word
367,1,M,2,Lentiform Loewenfeld,3.3.8,m,517.045299999998,30,word
368,1,C,2,Lentiform Loewenfeld,3.3.8,c,512.6340999999084,30,nonword
369,1,C,6,Lentiform Loewenfeld,3.3.8,c,725.6208999999799,30,nonword
370,1,C,5,Lentiform Loewenfeld,3.3.8,c,534.8804000001401,30,nonword
371,1,C,4,Lentiform Loewenfeld,3.3.8,c,543.1284999998752,30,nonword
372,1,M,5,Lentiform Loewenfeld,3.3.8,m,588.0650000000605,30,word
373,1,C,1,Lentiform Loewenfeld,3.3.8,c,446.01430000003893,30,nonword
374,1,C,4,Lentiform Loewenfeld,3.3.8,c,461.6111000002129,30,nonword
375,1,C,7,Lentiform Loewenfeld,3.3.8,c,474.54169999982696,30,nonword
376,1,M,1,Lentiform Loewenfeld,3.3.8,m,541.8127000000095,30,word
377,1,C,3,Lentiform Loewenfeld,3.3.8,c,504.60129999998026,30,nonword
378,1,M,1,Lentiform Loewenfeld,3.3.8,m,527.9963999999454,30,word
379,1,C,6,Lentiform Loewenfeld,3.3.8,c,552.7710000000661,30,nonword
380,1,C,6,Lentiform Loewenfeld,3.3.8,c,497.72460000007413,30,nonword
381,1,C,3,Lentiform Loewenfeld,3.3.8,c,455.51219999976456,30,nonword
382,1,C,5,Lentiform Loewenfeld,3.3.8,c,469.8151999999536,30,nonword
383,1,M,1,Lentiform Loewenfeld,3.3.8,m,491.04819999984466,30,word
384,1,C,3,Lentiform Loewenfeld,3.3.8,c,480.3082999998005,30,nonword
385,0,M,6,Lentiform Loewenfeld,3.3.8,c,566.9863000002224,30,word
386,1,M,3,Lentiform Loewenfeld,3.3.8,m,640.5285000000149,30,word
387,1,C,7,Lentiform Loewenfeld,3.3.8,c,548.7586000000592,30,nonword
388,1,C,2,Lentiform Loewenfeld,3.3.8,c,682.7151999999769,30,nonword
389,1,C,2,Lentiform Loewenfeld,3.3.8,c,603.2828999999911,30,nonword
390,1,C,3,Lentiform Loewenfeld,3.3.8,c,509.2316999997711,30,nonword
391,1,M,4,Lentiform Loewenfeld,3.3.8,m,500.0082999998704,30,word
392,1,C,1,Lentiform Loewenfeld,3.3.8,c,471.2692999998108,30,nonword
393,1,C,5,Lentiform Loewenfeld,3.3.8,c,528.0241999999853,30,nonword
394,1,M,1,Lentiform Loewenfeld,3.3.8,m,613.4687000000849,30,word
395,1,C,4,Lentiform Loewenfeld,3.3.8,c,801.7545999999857,30,nonword
396,1,M,5,Lentiform Loewenfeld,3.3.8,m,627.8301999999676,30,word
397,1,C,2,Lentiform Loewenfeld,3.3.8,c,484.2430000000168,30,nonword
398,1,M,7,Lentiform Loewenfeld,3.3.8,m,522.035300000105,30,word
399,1,C,6,Lentiform Loewenfeld,3.3.8,c,441.79490000009537,30,nonword
400,1,C,4,Lentiform Loewenfeld,3.3.8,c,659.1003000000492,30,nonword
401,1,C,3,Lentiform Loewenfeld,3.3.8,c,505.0620999998646,30,nonword
402,0,C,3,Lentiform Loewenfeld,3.3.8,m,588.3038000001106,30,nonword
403,1,M,2,Lentiform Loewenfeld,3.3.8,m,571.9246000000276,30,word
404,1,M,1,Lentiform Loewenfeld,3.3.8,m,456.986200000043,30,word
405,1,M,3,Lentiform Loewenfeld,3.3.8,m,432.2882000000682,30,word
406,1,M,3,Lentiform Loewenfeld,3.3.8,m,434.0444000000134,30,word
407,1,C,6,Lentiform Loewenfeld,3.3.8,c,515.5380999998888,30,nonword
408,1,C,3,Lentiform Loewenfeld,3.3.8,c,440.7804999999935,30,nonword
409,1,C,6,Lentiform Loewenfeld,3.3.8,c,518.3747999998741,30,nonword
410,1,M,2,Lentiform Loewenfeld,3.3.8,m,591.0282000000589,30,word
411,1,M,3,Lentiform Loewenfeld,3.3.8,m,731.955200000084,30,word
412,1,M,5,Lentiform Loewenfeld,3.3.8,m,480.17440000001807,30,word
413,1,C,4,Lentiform Loewenfeld,3.3.8,c,449.15380000008736,30,nonword
414,1,M,3,Lentiform Loewenfeld,3.3.8,m,494.0848999997834,30,word
415,1,M,4,Lentiform Loewenfeld,3.3.8,m,464.0197999998927,30,word
416,1,C,1,Lentiform Loewenfeld,3.3.8,c,597.6447000000626,30,nonword
417,1,M,6,Lentiform Loewenfeld,3.3.8,m,493.6836999999359,30,word
418,1,C,5,Lentiform Loewenfeld,3.3.8,c,563.8487999998033,30,nonword
419,1,C,3,Lentiform Loewenfeld,3.3.8,c,579.6080000001239,30,nonword
