Unnamed: 0,correct_keyboard_response_1,correct_response,flanker_condition,opensesame_codename,opensesame_version,response_keyboard_response_1,response_time_keyboard_response_1,subject_nr,target_type
0,1,M,2,Lentiform Loewenfeld,3.3.8,m,398.97059999997145,22,word
1,1,M,1,Lentiform Loewenfeld,3.3.8,m,607.5646000000124,22,word
2,1,C,5,Lentiform Loewenfeld,3.3.8,c,638.1637000000046,22,nonword
3,1,C,6,Lentiform Loewenfeld,3.3.8,c,640.9196000000229,22,nonword
4,1,C,3,Lentiform Loewenfeld,3.3.8,c,587.1298999999999,22,nonword
5,1,M,7,Lentiform Loewenfeld,3.3.8,m,530.7418999999936,22,word
6,1,M,3,Lentiform Loewenfeld,3.3.8,m,516.380599999975,22,word
7,1,M,7,Lentiform Loewenfeld,3.3.8,m,543.1469000000216,22,word
8,1,M,4,Lentiform Loewenfeld,3.3.8,m,469.6223999999929,22,word
9,1,C,5,Lentiform Loewenfeld,3.3.8,c,565.2336999999825,22,nonword
10,1,M,2,Lentiform Loewenfeld,3.3.8,m,388.05179999998654,22,word
11,1,C,2,Lentiform Loewenfeld,3.3.8,c,477.29569999995874,22,nonword
12,1,C,7,Lentiform Loewenfeld,3.3.8,c,526.08679999999,22,nonword
13,1,M,4,Lentiform Loewenfeld,3.3.8,m,455.5198999999848,22,word
14,1,M,7,Lentiform Loewenfeld,3.3.8,m,590.1612999999779,22,word
15,1,C,5,Lentiform Loewenfeld,3.3.8,c,557.7838999999803,22,nonword
16,0,C,6,Lentiform Loewenfeld,3.3.8,m,537.5298999999941,22,nonword
17,1,M,3,Lentiform Loewenfeld,3.3.8,m,512.1076000000176,22,word
18,1,M,6,Lentiform Loewenfeld,3.3.8,m,632.0809000000008,22,word
19,1,M,3,Lentiform Loewenfeld,3.3.8,m,474.02069999999367,22,word
20,1,C,1,Lentiform Loewenfeld,3.3.8,c,534.3393999999971,22,nonword
21,1,C,1,Lentiform Loewenfeld,3.3.8,c,574.0454000000318,22,nonword
22,1,M,5,Lentiform Loewenfeld,3.3.8,m,483.3521999999939,22,word
23,1,M,7,Lentiform Loewenfeld,3.3.8,m,504.61599999998,22,word
24,1,M,2,Lentiform Loewenfeld,3.3.8,m,527.0869999999995,22,word
25,1,M,1,Lentiform Loewenfeld,3.3.8,m,386.84599999999045,22,word
26,1,C,7,Lentiform Loewenfeld,3.3.8,c,470.4544999999925,22,nonword
27,1,M,7,Lentiform Loewenfeld,3.3.8,m,508.1310999999696,22,word
28,1,C,6,Lentiform Loewenfeld,3.3.8,c,568.2246999999916,22,nonword
29,1,M,4,Lentiform Loewenfeld,3.3.8,m,531.6467999999877,22,word
30,1,C,1,Lentiform Loewenfeld,3.3.8,c,523.7535000000207,22,nonword
31,1,C,7,Lentiform Loewenfeld,3.3.8,c,757.7467000000179,22,nonword
32,1,M,5,Lentiform Loewenfeld,3.3.8,m,492.6424999999581,22,word
33,1,C,5,Lentiform Loewenfeld,3.3.8,c,800.9996000000392,22,nonword
34,1,C,6,Lentiform Loewenfeld,3.3.8,c,602.1646999999939,22,nonword
35,1,M,6,Lentiform Loewenfeld,3.3.8,m,837.1094999999623,22,word
36,0,M,3,Lentiform Loewenfeld,3.3.8,c,565.5031000000308,22,word
37,1,M,5,Lentiform Loewenfeld,3.3.8,m,555.5891999999876,22,word
38,1,M,7,Lentiform Loewenfeld,3.3.8,m,478.9966999999888,22,word
39,1,C,1,Lentiform Loewenfeld,3.3.8,c,493.15220000001136,22,nonword
40,1,C,3,Lentiform Loewenfeld,3.3.8,c,545.0826000000234,22,nonword
41,1,M,7,Lentiform Loewenfeld,3.3.8,m,572.82779999997,22,word
42,1,C,2,Lentiform Loewenfeld,3.3.8,c,481.29690000004484,22,nonword
43,1,M,5,Lentiform Loewenfeld,3.3.8,m,489.7434999999823,22,word
44,1,M,4,Lentiform Loewenfeld,3.3.8,m,418.1928000000189,22,word
45,1,M,4,Lentiform Loewenfeld,3.3.8,m,547.9754999999714,22,word
46,0,M,3,Lentiform Loewenfeld,3.3.8,c,329.2502000000095,22,word
47,1,C,5,Lentiform Loewenfeld,3.3.8,c,594.215600000025,22,nonword
48,1,M,2,Lentiform Loewenfeld,3.3.8,m,424.97689999995055,22,word
49,1,M,6,Lentiform Loewenfeld,3.3.8,m,576.2616000000562,22,word
50,1,C,2,Lentiform Loewenfeld,3.3.8,c,442.6865000000107,22,nonword
51,1,C,6,Lentiform Loewenfeld,3.3.8,c,523.7565999999642,22,nonword
52,1,M,2,Lentiform Loewenfeld,3.3.8,m,886.720799999981,22,word
53,1,M,7,Lentiform Loewenfeld,3.3.8,m,464.0093000000052,22,word
54,1,C,2,Lentiform Loewenfeld,3.3.8,c,579.5751000000164,22,nonword
55,1,M,5,Lentiform Loewenfeld,3.3.8,m,478.40929999997024,22,word
56,1,M,7,Lentiform Loewenfeld,3.3.8,m,496.65640000003623,22,word
57,1,C,4,Lentiform Loewenfeld,3.3.8,c,525.5800999999628,22,nonword
58,1,M,3,Lentiform Loewenfeld,3.3.8,m,458.35580000001937,22,word
59,1,M,7,Lentiform Loewenfeld,3.3.8,m,695.0043000000296,22,word
60,1,M,5,Lentiform Loewenfeld,3.3.8,m,464.5673999999708,22,word
61,1,M,4,Lentiform Loewenfeld,3.3.8,m,564.9067000000214,22,word
62,1,C,5,Lentiform Loewenfeld,3.3.8,c,519.9892999999865,22,nonword
63,1,M,7,Lentiform Loewenfeld,3.3.8,m,457.89140000002226,22,word
64,1,C,6,Lentiform Loewenfeld,3.3.8,c,497.70779999997467,22,nonword
65,1,M,3,Lentiform Loewenfeld,3.3.8,m,436.01479999997537,22,word
66,1,C,4,Lentiform Loewenfeld,3.3.8,c,594.0446999999403,22,nonword
67,0,M,2,Lentiform Loewenfeld,3.3.8,c,525.8674000000756,22,word
68,1,M,6,Lentiform Loewenfeld,3.3.8,m,447.47710000007646,22,word
69,1,M,4,Lentiform Loewenfeld,3.3.8,m,396.1557999999495,22,word
70,1,M,4,Lentiform Loewenfeld,3.3.8,m,427.05099999986123,22,word
71,0,C,5,Lentiform Loewenfeld,3.3.8,m,360.4891000000061,22,nonword
72,1,C,2,Lentiform Loewenfeld,3.3.8,c,548.6055000000633,22,nonword
73,1,M,5,Lentiform Loewenfeld,3.3.8,m,500.21140000002924,22,word
74,1,M,6,Lentiform Loewenfeld,3.3.8,m,469.9936999999336,22,word
75,1,M,2,Lentiform Loewenfeld,3.3.8,m,516.8146999999299,22,word
76,1,M,3,Lentiform Loewenfeld,3.3.8,m,547.5770000000484,22,word
77,1,C,2,Lentiform Loewenfeld,3.3.8,c,609.8529999999446,22,nonword
78,1,M,7,Lentiform Loewenfeld,3.3.8,m,465.6563999999198,22,word
79,0,C,1,Lentiform Loewenfeld,3.3.8,m,533.2679000000353,22,nonword
80,1,M,2,Lentiform Loewenfeld,3.3.8,m,490.6746000000858,22,word
81,1,M,2,Lentiform Loewenfeld,3.3.8,m,453.9556999999332,22,word
82,1,C,6,Lentiform Loewenfeld,3.3.8,c,618.2550000000047,22,nonword
83,1,C,3,Lentiform Loewenfeld,3.3.8,c,623.1629000000539,22,nonword
84,1,C,7,Lentiform Loewenfeld,3.3.8,c,430.74579999997513,22,nonword
85,1,M,1,Lentiform Loewenfeld,3.3.8,m,346.54999999998836,22,word
86,0,C,5,Lentiform Loewenfeld,3.3.8,m,475.9582000000519,22,nonword
87,1,C,3,Lentiform Loewenfeld,3.3.8,c,504.9823000000906,22,nonword
88,1,C,5,Lentiform Loewenfeld,3.3.8,c,505.93679999996675,22,nonword
89,1,C,5,Lentiform Loewenfeld,3.3.8,c,525.6829000000143,22,nonword
90,1,M,1,Lentiform Loewenfeld,3.3.8,m,554.1316000000224,22,word
91,1,M,7,Lentiform Loewenfeld,3.3.8,m,692.8949000001303,22,word
92,1,M,2,Lentiform Loewenfeld,3.3.8,m,548.1760000000359,22,word
93,1,C,4,Lentiform Loewenfeld,3.3.8,c,507.6092999998946,22,nonword
94,1,C,7,Lentiform Loewenfeld,3.3.8,c,517.0244999999413,22,nonword
95,1,C,7,Lentiform Loewenfeld,3.3.8,c,532.5737000000663,22,nonword
96,1,C,2,Lentiform Loewenfeld,3.3.8,c,500.2427000000025,22,nonword
97,0,M,2,Lentiform Loewenfeld,3.3.8,c,577.1717000000644,22,word
98,1,C,1,Lentiform Loewenfeld,3.3.8,c,526.2755999999936,22,nonword
99,0,M,5,Lentiform Loewenfeld,3.3.8,c,544.5811999999569,22,word
100,1,M,4,Lentiform Loewenfeld,3.3.8,m,550.3781999999774,22,word
101,0,C,5,Lentiform Loewenfeld,3.3.8,m,563.4548999998951,22,nonword
102,1,M,5,Lentiform Loewenfeld,3.3.8,m,726.0241000000387,22,word
103,1,M,1,Lentiform Loewenfeld,3.3.8,m,547.9113999999827,22,word
104,1,C,1,Lentiform Loewenfeld,3.3.8,c,837.0513999999384,22,nonword
105,1,C,6,Lentiform Loewenfeld,3.3.8,c,749.8342999999877,22,nonword
106,1,C,3,Lentiform Loewenfeld,3.3.8,c,539.8794000000344,22,nonword
107,1,M,1,Lentiform Loewenfeld,3.3.8,m,577.1371000001091,22,word
108,1,C,5,Lentiform Loewenfeld,3.3.8,c,854.2662999999593,22,nonword
109,1,C,7,Lentiform Loewenfeld,3.3.8,c,499.6576999999816,22,nonword
110,1,C,2,Lentiform Loewenfeld,3.3.8,c,568.7854999999981,22,nonword
111,1,M,6,Lentiform Loewenfeld,3.3.8,m,568.7025999999605,22,word
112,1,C,4,Lentiform Loewenfeld,3.3.8,c,501.80020000005607,22,nonword
113,1,M,1,Lentiform Loewenfeld,3.3.8,m,496.73500000004424,22,word
114,1,C,2,Lentiform Loewenfeld,3.3.8,c,581.8448999999673,22,nonword
115,1,C,3,Lentiform Loewenfeld,3.3.8,c,575.126900000032,22,nonword
116,1,M,1,Lentiform Loewenfeld,3.3.8,m,492.74540000001434,22,word
117,1,M,2,Lentiform Loewenfeld,3.3.8,m,438.89529999991646,22,word
118,1,M,3,Lentiform Loewenfeld,3.3.8,m,537.1356999999261,22,word
119,1,C,3,Lentiform Loewenfeld,3.3.8,c,552.875,22,nonword
120,1,M,6,Lentiform Loewenfeld,3.3.8,m,519.2839999999851,22,word
121,1,M,4,Lentiform Loewenfeld,3.3.8,m,498.0791999999201,22,word
122,1,C,7,Lentiform Loewenfeld,3.3.8,c,527.3902000000235,22,nonword
123,1,C,5,Lentiform Loewenfeld,3.3.8,c,798.5314000000362,22,nonword
124,1,C,7,Lentiform Loewenfeld,3.3.8,c,801.5399000000907,22,nonword
125,1,C,7,Lentiform Loewenfeld,3.3.8,c,1138.3090000000666,22,nonword
126,1,M,3,Lentiform Loewenfeld,3.3.8,m,421.123900000006,22,word
127,1,M,1,Lentiform Loewenfeld,3.3.8,m,571.1344999999856,22,word
128,1,M,2,Lentiform Loewenfeld,3.3.8,m,472.1628999999957,22,word
129,1,M,2,Lentiform Loewenfeld,3.3.8,m,512.0031999999774,22,word
130,1,C,4,Lentiform Loewenfeld,3.3.8,c,1100.6133000000264,22,nonword
131,1,C,6,Lentiform Loewenfeld,3.3.8,c,564.6635000000824,22,nonword
132,0,M,7,Lentiform Loewenfeld,3.3.8,c,1834.05349999998,22,word
133,1,M,4,Lentiform Loewenfeld,3.3.8,m,961.5361999999732,22,word
134,1,C,6,Lentiform Loewenfeld,3.3.8,c,565.5993000000599,22,nonword
135,1,C,3,Lentiform Loewenfeld,3.3.8,c,687.6971000000485,22,nonword
136,1,C,4,Lentiform Loewenfeld,3.3.8,c,734.2436000000453,22,nonword
137,1,M,4,Lentiform Loewenfeld,3.3.8,m,648.6155000000144,22,word
138,1,C,2,Lentiform Loewenfeld,3.3.8,c,810.4654999999912,22,nonword
139,1,C,5,Lentiform Loewenfeld,3.3.8,c,534.2353000000003,22,nonword
140,1,C,3,Lentiform Loewenfeld,3.3.8,c,509.4837000000407,22,nonword
141,1,M,2,Lentiform Loewenfeld,3.3.8,m,629.5851999999722,22,word
142,1,M,3,Lentiform Loewenfeld,3.3.8,m,513.3211999999476,22,word
143,1,M,3,Lentiform Loewenfeld,3.3.8,m,478.2843999998877,22,word
144,1,C,4,Lentiform Loewenfeld,3.3.8,c,486.2324999999837,22,nonword
145,0,M,1,Lentiform Loewenfeld,3.3.8,c,535.1817999999621,22,word
146,1,M,3,Lentiform Loewenfeld,3.3.8,m,695.2970000000205,22,word
147,1,C,2,Lentiform Loewenfeld,3.3.8,c,574.3810999999987,22,nonword
148,1,C,1,Lentiform Loewenfeld,3.3.8,c,508.0100000000675,22,nonword
149,1,M,2,Lentiform Loewenfeld,3.3.8,m,540.272399999958,22,word
150,1,C,6,Lentiform Loewenfeld,3.3.8,c,549.5793000000413,22,nonword
151,1,C,2,Lentiform Loewenfeld,3.3.8,c,520.5599999999395,22,nonword
152,1,C,6,Lentiform Loewenfeld,3.3.8,c,554.1340999999666,22,nonword
153,1,C,5,Lentiform Loewenfeld,3.3.8,c,502.2431000000215,22,nonword
154,1,M,7,Lentiform Loewenfeld,3.3.8,m,512.8654000000097,22,word
155,1,M,6,Lentiform Loewenfeld,3.3.8,m,472.6884999999893,22,word
156,1,M,3,Lentiform Loewenfeld,3.3.8,m,513.1851000000024,22,word
157,1,M,7,Lentiform Loewenfeld,3.3.8,m,449.9363000000012,22,word
158,0,C,4,Lentiform Loewenfeld,3.3.8,m,495.8581000000122,22,nonword
159,0,C,7,Lentiform Loewenfeld,3.3.8,m,645.1278000000166,22,nonword
160,1,M,1,Lentiform Loewenfeld,3.3.8,m,471.7320999999647,22,word
161,1,C,5,Lentiform Loewenfeld,3.3.8,c,601.5057999999844,22,nonword
162,1,C,4,Lentiform Loewenfeld,3.3.8,c,603.9762999999803,22,nonword
163,1,C,2,Lentiform Loewenfeld,3.3.8,c,579.5788999999058,22,nonword
164,1,M,4,Lentiform Loewenfeld,3.3.8,m,494.6182999999728,22,word
165,1,M,7,Lentiform Loewenfeld,3.3.8,m,486.63689999992494,22,word
166,1,M,5,Lentiform Loewenfeld,3.3.8,m,481.34030000009807,22,word
167,1,M,6,Lentiform Loewenfeld,3.3.8,m,454.32070000004023,22,word
168,1,C,4,Lentiform Loewenfeld,3.3.8,c,589.4462000000058,22,nonword
169,1,C,3,Lentiform Loewenfeld,3.3.8,c,927.2303000000538,22,nonword
170,1,C,5,Lentiform Loewenfeld,3.3.8,c,812.7670000000508,22,nonword
171,1,M,4,Lentiform Loewenfeld,3.3.8,m,494.2966000000015,22,word
172,1,C,3,Lentiform Loewenfeld,3.3.8,c,568.986200000043,22,nonword
173,1,M,1,Lentiform Loewenfeld,3.3.8,m,519.9107999999542,22,word
174,1,C,2,Lentiform Loewenfeld,3.3.8,c,565.3377999999793,22,nonword
175,1,M,1,Lentiform Loewenfeld,3.3.8,m,526.0463999999338,22,word
176,1,C,6,Lentiform Loewenfeld,3.3.8,c,491.04879999993136,22,nonword
177,1,M,5,Lentiform Loewenfeld,3.3.8,m,881.5492999999551,22,word
178,1,M,4,Lentiform Loewenfeld,3.3.8,m,456.22710000001825,22,word
179,1,C,6,Lentiform Loewenfeld,3.3.8,c,503.84359999996377,22,nonword
180,1,C,7,Lentiform Loewenfeld,3.3.8,c,523.579299999983,22,nonword
181,1,C,4,Lentiform Loewenfeld,3.3.8,c,507.38140000001295,22,nonword
182,1,M,5,Lentiform Loewenfeld,3.3.8,m,442.49420000007376,22,word
183,1,C,6,Lentiform Loewenfeld,3.3.8,c,601.4480999999796,22,nonword
184,1,C,3,Lentiform Loewenfeld,3.3.8,c,551.8657000000239,22,nonword
185,1,C,1,Lentiform Loewenfeld,3.3.8,c,399.82809999992605,22,nonword
186,0,M,6,Lentiform Loewenfeld,3.3.8,c,362.6041999999433,22,word
187,1,C,1,Lentiform Loewenfeld,3.3.8,c,545.5694999999832,22,nonword
188,1,M,2,Lentiform Loewenfeld,3.3.8,m,513.0318000000552,22,word
189,1,C,1,Lentiform Loewenfeld,3.3.8,c,604.6068999999552,22,nonword
190,1,M,3,Lentiform Loewenfeld,3.3.8,m,1171.247399999993,22,word
191,1,C,1,Lentiform Loewenfeld,3.3.8,c,467.25089999998454,22,nonword
192,1,M,7,Lentiform Loewenfeld,3.3.8,m,640.0331999999471,22,word
193,1,C,1,Lentiform Loewenfeld,3.3.8,c,528.6260000000475,22,nonword
194,0,M,6,Lentiform Loewenfeld,3.3.8,c,448.74909999989904,22,word
195,0,M,2,Lentiform Loewenfeld,3.3.8,c,509.375500000082,22,word
196,1,C,5,Lentiform Loewenfeld,3.3.8,c,651.8001999999397,22,nonword
197,1,C,7,Lentiform Loewenfeld,3.3.8,c,483.5506999999634,22,nonword
198,1,M,1,Lentiform Loewenfeld,3.3.8,m,574.9840999999433,22,word
199,1,C,2,Lentiform Loewenfeld,3.3.8,c,485.7581000000355,22,nonword
200,1,M,6,Lentiform Loewenfeld,3.3.8,m,556.2929999999469,22,word
201,1,C,1,Lentiform Loewenfeld,3.3.8,c,603.1253999999026,22,nonword
202,1,M,5,Lentiform Loewenfeld,3.3.8,m,566.0826999999117,22,word
203,1,M,1,Lentiform Loewenfeld,3.3.8,m,508.8468000000576,22,word
204,1,M,6,Lentiform Loewenfeld,3.3.8,m,527.8081999999704,22,word
205,1,C,6,Lentiform Loewenfeld,3.3.8,c,747.3165000000736,22,nonword
206,1,C,3,Lentiform Loewenfeld,3.3.8,c,656.8292000001529,22,nonword
207,1,C,1,Lentiform Loewenfeld,3.3.8,c,574.6076000001049,22,nonword
208,1,C,1,Lentiform Loewenfeld,3.3.8,c,651.5075000000652,22,nonword
209,1,M,6,Lentiform Loewenfeld,3.3.8,m,563.1134000000311,22,word
210,1,C,4,Lentiform Loewenfeld,3.3.8,c,1300.875199999893,22,nonword
211,1,M,4,Lentiform Loewenfeld,3.3.8,m,362.0464000001084,22,word
212,1,M,5,Lentiform Loewenfeld,3.3.8,m,408.6792000000132,22,word
213,1,C,7,Lentiform Loewenfeld,3.3.8,c,569.3182999999262,22,nonword
214,0,C,4,Lentiform Loewenfeld,3.3.8,m,489.07640000013635,22,nonword
215,1,C,2,Lentiform Loewenfeld,3.3.8,c,548.5296000000089,22,nonword
216,1,M,6,Lentiform Loewenfeld,3.3.8,m,482.32700000004843,22,word
217,1,C,3,Lentiform Loewenfeld,3.3.8,c,605.061800000025,22,nonword
218,1,C,4,Lentiform Loewenfeld,3.3.8,c,586.0187999999616,22,nonword
219,1,M,7,Lentiform Loewenfeld,3.3.8,m,454.1502000000328,22,word
220,1,M,1,Lentiform Loewenfeld,3.3.8,m,570.4309999999823,22,word
221,1,C,5,Lentiform Loewenfeld,3.3.8,c,475.0067000000272,22,nonword
222,1,M,3,Lentiform Loewenfeld,3.3.8,m,372.26130000001285,22,word
223,1,M,7,Lentiform Loewenfeld,3.3.8,m,509.42740000004414,22,word
224,1,M,7,Lentiform Loewenfeld,3.3.8,m,436.1639000000432,22,word
225,1,C,4,Lentiform Loewenfeld,3.3.8,c,690.1282999999821,22,nonword
226,0,M,2,Lentiform Loewenfeld,3.3.8,c,534.389899999951,22,word
227,1,C,3,Lentiform Loewenfeld,3.3.8,c,774.6576999998651,22,nonword
228,1,M,2,Lentiform Loewenfeld,3.3.8,m,529.1003999998793,22,word
229,1,C,3,Lentiform Loewenfeld,3.3.8,c,708.9881000000751,22,nonword
230,1,C,3,Lentiform Loewenfeld,3.3.8,c,515.7140000000363,22,nonword
231,0,C,2,Lentiform Loewenfeld,3.3.8,m,654.734999999986,22,nonword
232,1,M,5,Lentiform Loewenfeld,3.3.8,m,626.267600000021,22,word
233,1,M,1,Lentiform Loewenfeld,3.3.8,m,499.5089000000153,22,word
234,0,M,2,Lentiform Loewenfeld,3.3.8,c,529.2985000000335,22,word
235,1,C,2,Lentiform Loewenfeld,3.3.8,c,550.5751000000164,22,nonword
236,1,M,6,Lentiform Loewenfeld,3.3.8,m,577.8527999999933,22,word
237,1,C,4,Lentiform Loewenfeld,3.3.8,c,584.4516000000294,22,nonword
238,1,M,6,Lentiform Loewenfeld,3.3.8,m,505.04390000004787,22,word
239,1,M,2,Lentiform Loewenfeld,3.3.8,m,520.796900000074,22,word
240,1,M,5,Lentiform Loewenfeld,3.3.8,m,609.4255000001285,22,word
241,1,M,7,Lentiform Loewenfeld,3.3.8,m,549.9135999999708,22,word
242,1,C,3,Lentiform Loewenfeld,3.3.8,c,505.1506999998819,22,nonword
243,1,M,4,Lentiform Loewenfeld,3.3.8,m,614.765400000033,22,word
244,1,M,4,Lentiform Loewenfeld,3.3.8,m,498.2076999999117,22,word
245,1,C,7,Lentiform Loewenfeld,3.3.8,c,677.9574000001885,22,nonword
246,1,M,3,Lentiform Loewenfeld,3.3.8,m,579.9036000000779,22,word
247,1,M,7,Lentiform Loewenfeld,3.3.8,m,561.3612999999896,22,word
248,0,C,2,Lentiform Loewenfeld,3.3.8,m,685.7840000001015,22,nonword
249,1,C,4,Lentiform Loewenfeld,3.3.8,c,636.2125000001397,22,nonword
250,1,C,4,Lentiform Loewenfeld,3.3.8,c,609.4932999999728,22,nonword
251,1,C,1,Lentiform Loewenfeld,3.3.8,c,491.23030000005383,22,nonword
252,0,M,6,Lentiform Loewenfeld,3.3.8,c,471.9910000000382,22,word
253,1,M,3,Lentiform Loewenfeld,3.3.8,m,545.4374000001699,22,word
254,1,C,2,Lentiform Loewenfeld,3.3.8,c,592.908000000054,22,nonword
255,1,C,2,Lentiform Loewenfeld,3.3.8,c,659.0091000000248,22,nonword
256,1,C,3,Lentiform Loewenfeld,3.3.8,c,1195.7708000000566,22,nonword
257,1,M,4,Lentiform Loewenfeld,3.3.8,m,826.4396999998717,22,word
258,1,C,2,Lentiform Loewenfeld,3.3.8,c,738.874499999918,22,nonword
259,1,C,4,Lentiform Loewenfeld,3.3.8,c,775.2701999999117,22,nonword
260,1,C,1,Lentiform Loewenfeld,3.3.8,c,627.1849000001093,22,nonword
261,1,M,5,Lentiform Loewenfeld,3.3.8,m,589.3553000000538,22,word
262,1,M,6,Lentiform Loewenfeld,3.3.8,m,795.8878999999724,22,word
263,1,M,2,Lentiform Loewenfeld,3.3.8,m,580.2127000000328,22,word
264,1,M,4,Lentiform Loewenfeld,3.3.8,m,477.0383000000147,22,word
265,1,C,7,Lentiform Loewenfeld,3.3.8,c,717.479999999865,22,nonword
266,0,C,1,Lentiform Loewenfeld,3.3.8,m,430.4095999998972,22,nonword
267,1,M,4,Lentiform Loewenfeld,3.3.8,m,507.98730000003707,22,word
268,0,C,2,Lentiform Loewenfeld,3.3.8,m,568.2478999999585,22,nonword
269,1,M,7,Lentiform Loewenfeld,3.3.8,m,583.8896000001114,22,word
270,1,C,6,Lentiform Loewenfeld,3.3.8,c,491.3558999998495,22,nonword
271,1,C,2,Lentiform Loewenfeld,3.3.8,c,589.7270000000717,22,nonword
272,1,M,7,Lentiform Loewenfeld,3.3.8,m,505.9967999999644,22,word
273,1,M,6,Lentiform Loewenfeld,3.3.8,m,546.7997999999207,22,word
274,1,C,7,Lentiform Loewenfeld,3.3.8,c,582.04589999991,22,nonword
275,1,M,6,Lentiform Loewenfeld,3.3.8,m,349.3362999999663,22,word
276,1,M,3,Lentiform Loewenfeld,3.3.8,m,446.1162999999942,22,word
277,1,C,3,Lentiform Loewenfeld,3.3.8,c,588.9259000000311,22,nonword
278,1,C,7,Lentiform Loewenfeld,3.3.8,c,595.685499999905,22,nonword
279,1,M,1,Lentiform Loewenfeld,3.3.8,m,468.62670000002254,22,word
280,1,C,6,Lentiform Loewenfeld,3.3.8,c,494.5843000001041,22,nonword
281,0,C,5,Lentiform Loewenfeld,3.3.8,m,578.8808999999892,22,nonword
282,1,C,1,Lentiform Loewenfeld,3.3.8,c,540.4557000000495,22,nonword
283,1,M,2,Lentiform Loewenfeld,3.3.8,m,572.0934000000125,22,word
284,1,M,6,Lentiform Loewenfeld,3.3.8,m,414.82259999995586,22,word
285,1,M,1,Lentiform Loewenfeld,3.3.8,m,460.4272999999812,22,word
286,1,C,1,Lentiform Loewenfeld,3.3.8,c,490.70670000009704,22,nonword
287,1,M,5,Lentiform Loewenfeld,3.3.8,m,501.46790000004694,22,word
288,1,M,6,Lentiform Loewenfeld,3.3.8,m,596.5679999999702,22,word
289,1,M,2,Lentiform Loewenfeld,3.3.8,m,350.70349999994505,22,word
290,1,M,5,Lentiform Loewenfeld,3.3.8,m,605.8370999998879,22,word
291,1,C,5,Lentiform Loewenfeld,3.3.8,c,485.12450000003446,22,nonword
292,1,M,5,Lentiform Loewenfeld,3.3.8,m,498.5786999999545,22,word
293,1,M,2,Lentiform Loewenfeld,3.3.8,m,505.1814000000013,22,word
294,1,M,6,Lentiform Loewenfeld,3.3.8,m,414.3071999999229,22,word
295,1,C,6,Lentiform Loewenfeld,3.3.8,c,498.4466999999713,22,nonword
296,1,M,5,Lentiform Loewenfeld,3.3.8,m,498.8586999999825,22,word
297,1,C,4,Lentiform Loewenfeld,3.3.8,c,465.9645000001183,22,nonword
298,1,M,5,Lentiform Loewenfeld,3.3.8,m,451.58869999996386,22,word
299,1,C,4,Lentiform Loewenfeld,3.3.8,c,509.54119999997783,22,nonword
300,1,M,5,Lentiform Loewenfeld,3.3.8,m,470.1488999999128,22,word
301,1,M,7,Lentiform Loewenfeld,3.3.8,m,556.4623999999603,22,word
302,1,M,5,Lentiform Loewenfeld,3.3.8,m,370.5492999999551,22,word
303,1,C,6,Lentiform Loewenfeld,3.3.8,c,573.985800000024,22,nonword
304,1,C,1,Lentiform Loewenfeld,3.3.8,c,661.268800000078,22,nonword
305,0,M,6,Lentiform Loewenfeld,3.3.8,c,673.5238999999128,22,word
306,1,C,7,Lentiform Loewenfeld,3.3.8,c,692.0072999999393,22,nonword
307,1,M,1,Lentiform Loewenfeld,3.3.8,m,555.4272999998648,22,word
308,1,C,7,Lentiform Loewenfeld,3.3.8,c,548.9938999998849,22,nonword
309,1,M,5,Lentiform Loewenfeld,3.3.8,m,532.1056000001263,22,word
310,1,C,1,Lentiform Loewenfeld,3.3.8,c,567.0736999999499,22,nonword
311,1,M,3,Lentiform Loewenfeld,3.3.8,m,662.1598000000231,22,word
312,1,C,4,Lentiform Loewenfeld,3.3.8,c,696.7648000000045,22,nonword
313,1,C,2,Lentiform Loewenfeld,3.3.8,c,667.3715000000084,22,nonword
314,1,M,3,Lentiform Loewenfeld,3.3.8,m,553.1215999999549,22,word
315,1,C,4,Lentiform Loewenfeld,3.3.8,c,492.9155000000028,22,nonword
316,1,C,3,Lentiform Loewenfeld,3.3.8,c,537.6840000000084,22,nonword
317,1,M,3,Lentiform Loewenfeld,3.3.8,m,559.1019000000088,22,word
318,1,C,2,Lentiform Loewenfeld,3.3.8,c,465.5493000000715,22,nonword
319,1,C,2,Lentiform Loewenfeld,3.3.8,c,593.6792999999598,22,nonword
320,1,M,3,Lentiform Loewenfeld,3.3.8,m,473.1099000001559,22,word
321,1,C,2,Lentiform Loewenfeld,3.3.8,c,522.8917000000365,22,nonword
322,1,M,5,Lentiform Loewenfeld,3.3.8,m,644.1917000000831,22,word
323,1,M,6,Lentiform Loewenfeld,3.3.8,m,597.2924999999814,22,word
324,1,C,6,Lentiform Loewenfeld,3.3.8,c,672.3523999998579,22,nonword
325,1,C,7,Lentiform Loewenfeld,3.3.8,c,621.6008999999613,22,nonword
326,1,C,6,Lentiform Loewenfeld,3.3.8,c,912.3621999999741,22,nonword
327,1,C,1,Lentiform Loewenfeld,3.3.8,c,607.3963999999687,22,nonword
328,0,M,1,Lentiform Loewenfeld,3.3.8,c,423.36309999995865,22,word
329,1,C,7,Lentiform Loewenfeld,3.3.8,c,491.1371999999974,22,nonword
330,1,M,7,Lentiform Loewenfeld,3.3.8,m,591.4911999999313,22,word
331,1,M,3,Lentiform Loewenfeld,3.3.8,m,536.8956999998773,22,word
332,1,C,7,Lentiform Loewenfeld,3.3.8,c,509.02700000000186,22,nonword
333,1,M,6,Lentiform Loewenfeld,3.3.8,m,642.0749000000069,22,word
334,1,C,3,Lentiform Loewenfeld,3.3.8,c,610.0041999999667,22,nonword
335,1,M,2,Lentiform Loewenfeld,3.3.8,m,415.91760000016075,22,word
336,1,M,4,Lentiform Loewenfeld,3.3.8,m,539.2092999999877,22,word
337,1,M,4,Lentiform Loewenfeld,3.3.8,m,618.0009999999311,22,word
338,1,C,4,Lentiform Loewenfeld,3.3.8,c,494.9047000000719,22,nonword
339,1,M,7,Lentiform Loewenfeld,3.3.8,m,671.3251999999629,22,word
340,1,C,1,Lentiform Loewenfeld,3.3.8,c,439.57810000004247,22,nonword
341,1,C,5,Lentiform Loewenfeld,3.3.8,c,491.8922999999486,22,nonword
342,1,M,4,Lentiform Loewenfeld,3.3.8,m,397.67519999993965,22,word
343,1,C,6,Lentiform Loewenfeld,3.3.8,c,475.6476000000257,22,nonword
344,1,C,7,Lentiform Loewenfeld,3.3.8,c,632.4001999999164,22,nonword
345,1,M,1,Lentiform Loewenfeld,3.3.8,m,542.3702999999514,22,word
346,1,C,2,Lentiform Loewenfeld,3.3.8,c,592.090899999952,22,nonword
347,0,M,6,Lentiform Loewenfeld,3.3.8,c,673.9196999999695,22,word
348,1,M,5,Lentiform Loewenfeld,3.3.8,m,362.6826000000583,22,word
349,1,C,3,Lentiform Loewenfeld,3.3.8,c,524.8667000001296,22,nonword
350,0,C,6,Lentiform Loewenfeld,3.3.8,m,700.4204000000609,22,nonword
351,0,M,1,Lentiform Loewenfeld,3.3.8,c,1572.0096000001067,22,word
352,1,C,5,Lentiform Loewenfeld,3.3.8,c,569.345500000054,22,nonword
353,1,C,5,Lentiform Loewenfeld,3.3.8,c,825.7595999999903,22,nonword
354,1,M,5,Lentiform Loewenfeld,3.3.8,m,553.1645000000717,22,word
355,1,C,6,Lentiform Loewenfeld,3.3.8,c,584.2541000000201,22,nonword
356,1,C,3,Lentiform Loewenfeld,3.3.8,c,507.4091999999946,22,nonword
357,0,M,3,Lentiform Loewenfeld,3.3.8,c,481.3460999999661,22,word
358,1,C,5,Lentiform Loewenfeld,3.3.8,c,530.813700000057,22,nonword
359,1,C,5,Lentiform Loewenfeld,3.3.8,c,505.3395999999484,22,nonword
360,1,C,7,Lentiform Loewenfeld,3.3.8,c,476.373900000006,22,nonword
361,1,M,1,Lentiform Loewenfeld,3.3.8,m,457.9557999999961,22,word
362,1,C,1,Lentiform Loewenfeld,3.3.8,c,522.765599999926,22,nonword
363,1,M,3,Lentiform Loewenfeld,3.3.8,m,469.66949999995995,22,word
364,1,C,1,Lentiform Loewenfeld,3.3.8,c,668.8639999999432,22,nonword
365,1,C,6,Lentiform Loewenfeld,3.3.8,c,1012.565600000089,22,nonword
366,1,C,3,Lentiform Loewenfeld,3.3.8,c,437.1130000001285,22,nonword
367,1,M,3,Lentiform Loewenfeld,3.3.8,m,531.0828000000911,22,word
368,1,C,3,Lentiform Loewenfeld,3.3.8,c,477.31990000000224,22,nonword
369,0,M,4,Lentiform Loewenfeld,3.3.8,c,524.8135000000475,22,word
370,1,M,4,Lentiform Loewenfeld,3.3.8,m,493.7555000000866,22,word
371,1,M,3,Lentiform Loewenfeld,3.3.8,m,411.19759999995586,22,word
372,1,M,6,Lentiform Loewenfeld,3.3.8,m,504.8151999999536,22,word
373,1,C,1,Lentiform Loewenfeld,3.3.8,c,659.7179000000469,22,nonword
374,1,C,1,Lentiform Loewenfeld,3.3.8,c,523.1793000000762,22,nonword
375,1,M,1,Lentiform Loewenfeld,3.3.8,m,505.95060000009835,22,word
376,1,C,7,Lentiform Loewenfeld,3.3.8,c,484.73769999993965,22,nonword
377,1,C,5,Lentiform Loewenfeld,3.3.8,c,558.1648000000278,22,nonword
378,1,M,2,Lentiform Loewenfeld,3.3.8,m,659.2948000000324,22,word
379,1,C,6,Lentiform Loewenfeld,3.3.8,c,558.2312999999849,22,nonword
380,1,C,3,Lentiform Loewenfeld,3.3.8,c,484.090799999889,22,nonword
381,1,C,5,Lentiform Loewenfeld,3.3.8,c,536.6162999999942,22,nonword
382,1,M,5,Lentiform Loewenfeld,3.3.8,m,555.5733000000473,22,word
383,1,M,4,Lentiform Loewenfeld,3.3.8,m,565.8218000000343,22,word
384,1,C,7,Lentiform Loewenfeld,3.3.8,c,699.1045999999624,22,nonword
385,1,C,4,Lentiform Loewenfeld,3.3.8,c,491.84109999996144,22,nonword
386,0,C,3,Lentiform Loewenfeld,3.3.8,m,666.6458999998868,22,nonword
387,1,M,7,Lentiform Loewenfeld,3.3.8,m,475.89259999990463,22,word
388,1,M,1,Lentiform Loewenfeld,3.3.8,m,427.5067000000272,22,word
389,1,C,4,Lentiform Loewenfeld,3.3.8,c,821.9755999998888,22,nonword
390,1,M,1,Lentiform Loewenfeld,3.3.8,m,454.0610999999335,22,word
391,1,C,6,Lentiform Loewenfeld,3.3.8,c,504.8536000000313,22,nonword
392,1,C,2,Lentiform Loewenfeld,3.3.8,c,695.2609000001103,22,nonword
393,1,M,3,Lentiform Loewenfeld,3.3.8,m,505.5291000000434,22,word
394,1,M,3,Lentiform Loewenfeld,3.3.8,m,429.95860000001267,22,word
395,1,M,2,Lentiform Loewenfeld,3.3.8,m,443.55300000007264,22,word
396,1,C,5,Lentiform Loewenfeld,3.3.8,c,535.5402000000468,22,nonword
397,1,M,6,Lentiform Loewenfeld,3.3.8,m,406.4714999999851,22,word
398,1,M,1,Lentiform Loewenfeld,3.3.8,m,476.4281000000192,22,word
399,1,C,4,Lentiform Loewenfeld,3.3.8,c,509.5240999999223,22,nonword
400,1,M,7,Lentiform Loewenfeld,3.3.8,m,425.5043000000296,22,word
401,1,C,6,Lentiform Loewenfeld,3.3.8,c,473.6127999998862,22,nonword
402,1,C,4,Lentiform Loewenfeld,3.3.8,c,658.8192000000272,22,nonword
403,1,C,7,Lentiform Loewenfeld,3.3.8,c,519.8098999999929,22,nonword
404,1,M,4,Lentiform Loewenfeld,3.3.8,m,538.4123999999138,22,word
405,0,M,4,Lentiform Loewenfeld,3.3.8,c,491.0474999998696,22,word
406,1,C,4,Lentiform Loewenfeld,3.3.8,c,471.6303000000771,22,nonword
407,1,C,4,Lentiform Loewenfeld,3.3.8,c,436.2523999999976,22,nonword
408,1,M,2,Lentiform Loewenfeld,3.3.8,m,488.0267999999924,22,word
409,1,C,7,Lentiform Loewenfeld,3.3.8,c,492.4568000000436,22,nonword
410,1,C,1,Lentiform Loewenfeld,3.3.8,c,456.0784000001149,22,nonword
411,1,C,6,Lentiform Loewenfeld,3.3.8,c,432.00250000006054,22,nonword
412,1,C,3,Lentiform Loewenfeld,3.3.8,c,508.6571000000695,22,nonword
413,0,M,1,Lentiform Loewenfeld,3.3.8,c,443.5877000000328,22,word
414,1,C,7,Lentiform Loewenfeld,3.3.8,c,539.8697999999858,22,nonword
415,1,C,5,Lentiform Loewenfeld,3.3.8,c,665.4677000000374,22,nonword
416,1,C,3,Lentiform Loewenfeld,3.3.8,c,715.9343999997946,22,nonword
417,1,M,1,Lentiform Loewenfeld,3.3.8,m,675.999599999981,22,word
418,1,M,4,Lentiform Loewenfeld,3.3.8,m,563.9503999999724,22,word
419,1,M,5,Lentiform Loewenfeld,3.3.8,m,569.2078999999212,22,word
