Unnamed: 0,correct_keyboard_response_1,correct_response,flanker_condition,opensesame_codename,opensesame_version,response_keyboard_response_1,response_time_keyboard_response_1,subject_nr,target_type
0,1,M,5,Lentiform Loewenfeld,3.3.8,m,800.0377999999473,28,word
1,1,C,6,Lentiform Loewenfeld,3.3.8,c,543.5591000000713,28,nonword
2,1,M,1,Lentiform Loewenfeld,3.3.8,m,632.2023000000336,28,word
3,1,C,1,Lentiform Loewenfeld,3.3.8,c,634.9200000001001,28,nonword
4,1,M,1,Lentiform Loewenfeld,3.3.8,m,744.552400000015,28,word
5,1,M,7,Lentiform Loewenfeld,3.3.8,m,656.9643999999098,28,word
6,1,C,3,Lentiform Loewenfeld,3.3.8,c,500.9991000001028,28,nonword
7,1,C,7,Lentiform Loewenfeld,3.3.8,c,776.6983000000473,28,nonword
8,1,C,1,Lentiform Loewenfeld,3.3.8,c,562.5837000000174,28,nonword
9,1,M,5,Lentiform Loewenfeld,3.3.8,m,597.8438999999489,28,word
10,1,M,5,Lentiform Loewenfeld,3.3.8,m,582.126600000076,28,word
11,1,M,1,Lentiform Loewenfeld,3.3.8,m,552.2161999999953,28,word
12,1,C,2,Lentiform Loewenfeld,3.3.8,c,743.1725999999908,28,nonword
13,1,C,4,Lentiform Loewenfeld,3.3.8,c,636.5774999999558,28,nonword
14,1,M,5,Lentiform Loewenfeld,3.3.8,m,630.177400000015,28,word
15,1,C,4,Lentiform Loewenfeld,3.3.8,c,619.4565000000002,28,nonword
16,1,C,4,Lentiform Loewenfeld,3.3.8,c,663.2200000000303,28,nonword
17,1,C,7,Lentiform Loewenfeld,3.3.8,c,592.9576999999699,28,nonword
18,1,M,5,Lentiform Loewenfeld,3.3.8,m,596.326699999976,28,word
19,1,C,6,Lentiform Loewenfeld,3.3.8,c,671.3230000000622,28,nonword
20,1,M,6,Lentiform Loewenfeld,3.3.8,m,582.1343000000343,28,word
21,1,C,5,Lentiform Loewenfeld,3.3.8,c,533.3358999999182,28,nonword
22,1,C,2,Lentiform Loewenfeld,3.3.8,c,569.1283000000112,28,nonword
23,1,M,2,Lentiform Loewenfeld,3.3.8,m,654.8705999999947,28,word
24,1,M,4,Lentiform Loewenfeld,3.3.8,m,565.1628999999084,28,word
25,1,C,3,Lentiform Loewenfeld,3.3.8,c,593.4343999999983,28,nonword
26,1,C,6,Lentiform Loewenfeld,3.3.8,c,734.8699000000488,28,nonword
27,1,C,3,Lentiform Loewenfeld,3.3.8,c,695.2726999999431,28,nonword
28,1,M,4,Lentiform Loewenfeld,3.3.8,m,727.208900000056,28,word
29,1,C,3,Lentiform Loewenfeld,3.3.8,c,599.8163000000641,28,nonword
30,1,M,1,Lentiform Loewenfeld,3.3.8,m,614.2286999999196,28,word
31,1,C,4,Lentiform Loewenfeld,3.3.8,c,606.3386999999639,28,nonword
32,1,C,5,Lentiform Loewenfeld,3.3.8,c,645.7505999999703,28,nonword
33,1,M,5,Lentiform Loewenfeld,3.3.8,m,528.6787999999942,28,word
34,1,M,3,Lentiform Loewenfeld,3.3.8,m,735.4968999999401,28,word
35,1,M,2,Lentiform Loewenfeld,3.3.8,m,646.9298999999592,28,word
36,1,M,2,Lentiform Loewenfeld,3.3.8,m,464.4671999999555,28,word
37,1,C,6,Lentiform Loewenfeld,3.3.8,c,643.8011000000697,28,nonword
38,1,M,1,Lentiform Loewenfeld,3.3.8,m,546.1229999999923,28,word
39,1,M,7,Lentiform Loewenfeld,3.3.8,m,514.6472000000358,28,word
40,1,C,4,Lentiform Loewenfeld,3.3.8,c,692.4194000000716,28,nonword
41,1,C,3,Lentiform Loewenfeld,3.3.8,c,668.1460999999545,28,nonword
42,1,M,1,Lentiform Loewenfeld,3.3.8,m,593.0892999999924,28,word
43,1,M,6,Lentiform Loewenfeld,3.3.8,m,491.86190000001807,28,word
44,0,C,1,Lentiform Loewenfeld,3.3.8,m,936.497400000022,28,nonword
45,1,C,6,Lentiform Loewenfeld,3.3.8,c,809.0780999999843,28,nonword
46,1,M,6,Lentiform Loewenfeld,3.3.8,m,650.7845000000088,28,word
47,1,C,7,Lentiform Loewenfeld,3.3.8,c,734.99729999993,28,nonword
48,1,M,2,Lentiform Loewenfeld,3.3.8,m,627.2475999999442,28,word
49,1,M,2,Lentiform Loewenfeld,3.3.8,m,730.6772000000637,28,word
50,1,M,6,Lentiform Loewenfeld,3.3.8,m,547.2529999999679,28,word
51,1,C,1,Lentiform Loewenfeld,3.3.8,c,645.8653000000049,28,nonword
52,1,C,2,Lentiform Loewenfeld,3.3.8,c,829.2767000000749,28,nonword
53,1,M,7,Lentiform Loewenfeld,3.3.8,m,711.7679000000644,28,word
54,1,M,2,Lentiform Loewenfeld,3.3.8,m,480.94000000006054,28,word
55,1,C,4,Lentiform Loewenfeld,3.3.8,c,655.0485000000626,28,nonword
56,1,C,1,Lentiform Loewenfeld,3.3.8,c,639.1497999999556,28,nonword
57,1,M,2,Lentiform Loewenfeld,3.3.8,m,528.9071999999578,28,word
58,1,M,5,Lentiform Loewenfeld,3.3.8,m,491.827399999951,28,word
59,1,C,6,Lentiform Loewenfeld,3.3.8,c,1131.333500000008,28,nonword
60,1,C,4,Lentiform Loewenfeld,3.3.8,c,751.2210999999661,28,nonword
61,1,M,4,Lentiform Loewenfeld,3.3.8,m,538.8124999999709,28,word
62,1,M,2,Lentiform Loewenfeld,3.3.8,m,538.2589000001026,28,word
63,1,C,3,Lentiform Loewenfeld,3.3.8,c,631.3439000000653,28,nonword
64,1,C,5,Lentiform Loewenfeld,3.3.8,c,647.1279000000213,28,nonword
65,1,M,3,Lentiform Loewenfeld,3.3.8,m,555.372400000022,28,word
66,1,C,4,Lentiform Loewenfeld,3.3.8,c,590.6304000000237,28,nonword
67,1,C,3,Lentiform Loewenfeld,3.3.8,c,711.2317999999505,28,nonword
68,1,C,4,Lentiform Loewenfeld,3.3.8,c,679.0228999999817,28,nonword
69,1,M,2,Lentiform Loewenfeld,3.3.8,m,617.2545000000973,28,word
70,1,M,4,Lentiform Loewenfeld,3.3.8,m,504.5071999999345,28,word
71,1,M,4,Lentiform Loewenfeld,3.3.8,m,676.4578999999794,28,word
72,1,M,3,Lentiform Loewenfeld,3.3.8,m,481.0419000000693,28,word
73,1,C,4,Lentiform Loewenfeld,3.3.8,c,566.6938999999547,28,nonword
74,1,C,4,Lentiform Loewenfeld,3.3.8,c,593.4467999999179,28,nonword
75,1,C,4,Lentiform Loewenfeld,3.3.8,c,510.9132999999565,28,nonword
76,1,M,7,Lentiform Loewenfeld,3.3.8,m,584.921900000074,28,word
77,1,C,7,Lentiform Loewenfeld,3.3.8,c,538.6081000000704,28,nonword
78,1,M,7,Lentiform Loewenfeld,3.3.8,m,594.1022000000812,28,word
79,1,C,1,Lentiform Loewenfeld,3.3.8,c,865.6499000000185,28,nonword
80,1,C,6,Lentiform Loewenfeld,3.3.8,c,651.7320000000182,28,nonword
81,1,M,7,Lentiform Loewenfeld,3.3.8,m,666.992499999993,28,word
82,1,M,2,Lentiform Loewenfeld,3.3.8,m,498.7180000000517,28,word
83,1,C,2,Lentiform Loewenfeld,3.3.8,c,619.5215000000317,28,nonword
84,1,C,7,Lentiform Loewenfeld,3.3.8,c,604.0997000000207,28,nonword
85,1,M,4,Lentiform Loewenfeld,3.3.8,m,509.5396999999066,28,word
86,1,M,6,Lentiform Loewenfeld,3.3.8,m,564.2640000000247,28,word
87,1,C,5,Lentiform Loewenfeld,3.3.8,c,567.5386999999755,28,nonword
88,1,C,7,Lentiform Loewenfeld,3.3.8,c,556.958299999882,28,nonword
89,1,C,3,Lentiform Loewenfeld,3.3.8,c,692.9190000001108,28,nonword
90,1,M,4,Lentiform Loewenfeld,3.3.8,m,758.6976999999606,28,word
91,1,M,4,Lentiform Loewenfeld,3.3.8,m,673.9188999999897,28,word
92,1,C,7,Lentiform Loewenfeld,3.3.8,c,616.9878999998909,28,nonword
93,1,C,1,Lentiform Loewenfeld,3.3.8,c,577.7743999999948,28,nonword
94,1,M,3,Lentiform Loewenfeld,3.3.8,m,641.0090000000782,28,word
95,1,C,6,Lentiform Loewenfeld,3.3.8,c,596.8101000000024,28,nonword
96,1,M,7,Lentiform Loewenfeld,3.3.8,m,542.3792000000249,28,word
97,1,C,2,Lentiform Loewenfeld,3.3.8,c,666.8315999999177,28,nonword
98,1,C,5,Lentiform Loewenfeld,3.3.8,c,617.2792000000481,28,nonword
99,1,C,1,Lentiform Loewenfeld,3.3.8,c,691.0300999999163,28,nonword
100,1,M,5,Lentiform Loewenfeld,3.3.8,m,582.4316999998991,28,word
101,1,M,5,Lentiform Loewenfeld,3.3.8,m,506.22769999993034,28,word
102,1,M,6,Lentiform Loewenfeld,3.3.8,m,509.32010000001173,28,word
103,1,M,5,Lentiform Loewenfeld,3.3.8,m,473.5878999999841,28,word
104,1,C,5,Lentiform Loewenfeld,3.3.8,c,598.5055000000284,28,nonword
105,1,C,6,Lentiform Loewenfeld,3.3.8,c,602.4629999999306,28,nonword
106,1,M,4,Lentiform Loewenfeld,3.3.8,m,575.7612000000081,28,word
107,1,C,1,Lentiform Loewenfeld,3.3.8,c,640.3288000000175,28,nonword
108,1,M,2,Lentiform Loewenfeld,3.3.8,m,586.4399999999441,28,word
109,1,C,4,Lentiform Loewenfeld,3.3.8,c,603.0059999999357,28,nonword
110,1,C,1,Lentiform Loewenfeld,3.3.8,c,671.1246000000392,28,nonword
111,1,M,4,Lentiform Loewenfeld,3.3.8,m,541.3770000000368,28,word
112,1,M,2,Lentiform Loewenfeld,3.3.8,m,593.188000000082,28,word
113,1,M,2,Lentiform Loewenfeld,3.3.8,m,518.4557999999961,28,word
114,1,M,6,Lentiform Loewenfeld,3.3.8,m,472.20389999996405,28,word
115,1,C,4,Lentiform Loewenfeld,3.3.8,c,501.5085000000545,28,nonword
116,1,C,1,Lentiform Loewenfeld,3.3.8,c,610.9838999999338,28,nonword
117,1,C,6,Lentiform Loewenfeld,3.3.8,c,556.5650000000023,28,nonword
118,1,M,2,Lentiform Loewenfeld,3.3.8,m,580.0012999999453,28,word
119,1,C,4,Lentiform Loewenfeld,3.3.8,c,580.2929000000586,28,nonword
120,1,M,2,Lentiform Loewenfeld,3.3.8,m,580.5809000000008,28,word
121,1,M,4,Lentiform Loewenfeld,3.3.8,m,898.7490000000107,28,word
122,1,M,7,Lentiform Loewenfeld,3.3.8,m,580.1206000000238,28,word
123,1,M,3,Lentiform Loewenfeld,3.3.8,m,508.194899999944,28,word
124,1,C,1,Lentiform Loewenfeld,3.3.8,c,676.2777000000933,28,nonword
125,1,M,5,Lentiform Loewenfeld,3.3.8,m,512.2181000000564,28,word
126,1,M,1,Lentiform Loewenfeld,3.3.8,m,536.9799999999814,28,word
127,1,M,5,Lentiform Loewenfeld,3.3.8,m,597.2984999999753,28,word
128,1,M,4,Lentiform Loewenfeld,3.3.8,m,487.31709999992745,28,word
129,1,C,3,Lentiform Loewenfeld,3.3.8,c,815.140400000033,28,nonword
130,1,C,4,Lentiform Loewenfeld,3.3.8,c,752.6707999999635,28,nonword
131,1,M,1,Lentiform Loewenfeld,3.3.8,m,687.1242999999668,28,word
132,1,M,7,Lentiform Loewenfeld,3.3.8,m,532.0685999998823,28,word
133,1,C,4,Lentiform Loewenfeld,3.3.8,c,764.8465999999898,28,nonword
134,1,C,2,Lentiform Loewenfeld,3.3.8,c,685.6991999999154,28,nonword
135,1,C,2,Lentiform Loewenfeld,3.3.8,c,665.6276999999536,28,nonword
136,1,C,5,Lentiform Loewenfeld,3.3.8,c,644.4342000000179,28,nonword
137,1,M,5,Lentiform Loewenfeld,3.3.8,m,545.3696999999229,28,word
138,1,M,6,Lentiform Loewenfeld,3.3.8,m,538.6427000000258,28,word
139,1,C,3,Lentiform Loewenfeld,3.3.8,c,631.4245000000228,28,nonword
140,1,C,3,Lentiform Loewenfeld,3.3.8,c,560.3368999999366,28,nonword
141,1,C,2,Lentiform Loewenfeld,3.3.8,c,693.6174999999348,28,nonword
142,1,M,5,Lentiform Loewenfeld,3.3.8,m,583.5819999999949,28,word
143,1,C,6,Lentiform Loewenfeld,3.3.8,c,623.4857999999658,28,nonword
144,1,C,6,Lentiform Loewenfeld,3.3.8,c,610.8912999999593,28,nonword
145,1,M,1,Lentiform Loewenfeld,3.3.8,m,588.4207000000752,28,word
146,1,C,5,Lentiform Loewenfeld,3.3.8,c,609.0931999999448,28,nonword
147,1,M,6,Lentiform Loewenfeld,3.3.8,m,526.36870000005,28,word
148,1,C,7,Lentiform Loewenfeld,3.3.8,c,651.8250000000698,28,nonword
149,1,C,6,Lentiform Loewenfeld,3.3.8,c,547.234199999948,28,nonword
150,1,C,7,Lentiform Loewenfeld,3.3.8,c,528.3232999999309,28,nonword
151,1,C,4,Lentiform Loewenfeld,3.3.8,c,706.2576000000117,28,nonword
152,0,M,6,Lentiform Loewenfeld,3.3.8,c,939.343899999978,28,word
153,1,M,7,Lentiform Loewenfeld,3.3.8,m,1048.2058000001125,28,word
154,1,M,4,Lentiform Loewenfeld,3.3.8,m,630.1118999999017,28,word
155,1,C,2,Lentiform Loewenfeld,3.3.8,c,689.1850999999442,28,nonword
156,1,M,7,Lentiform Loewenfeld,3.3.8,m,567.5797999998904,28,word
157,1,M,7,Lentiform Loewenfeld,3.3.8,m,590.5099000000628,28,word
158,1,M,6,Lentiform Loewenfeld,3.3.8,m,780.0961000001407,28,word
159,1,M,7,Lentiform Loewenfeld,3.3.8,m,492.7108999999473,28,word
160,1,C,6,Lentiform Loewenfeld,3.3.8,c,741.9825999999302,28,nonword
161,1,C,3,Lentiform Loewenfeld,3.3.8,c,620.1890999999596,28,nonword
162,1,C,3,Lentiform Loewenfeld,3.3.8,c,587.484199999948,28,nonword
163,1,C,1,Lentiform Loewenfeld,3.3.8,c,643.0730000000913,28,nonword
164,1,M,1,Lentiform Loewenfeld,3.3.8,m,1067.3463999998057,28,word
165,1,M,3,Lentiform Loewenfeld,3.3.8,m,571.105300000112,28,word
166,1,M,3,Lentiform Loewenfeld,3.3.8,m,534.5443000000087,28,word
167,1,C,3,Lentiform Loewenfeld,3.3.8,c,720.5018999999738,28,nonword
168,0,C,5,Lentiform Loewenfeld,3.3.8,m,675.1236999999965,28,nonword
169,1,C,1,Lentiform Loewenfeld,3.3.8,c,593.6680000001215,28,nonword
170,1,C,7,Lentiform Loewenfeld,3.3.8,c,576.91949999996,28,nonword
171,1,M,5,Lentiform Loewenfeld,3.3.8,m,607.3410000000149,28,word
172,1,M,1,Lentiform Loewenfeld,3.3.8,m,577.2630000000354,28,word
173,1,M,4,Lentiform Loewenfeld,3.3.8,m,623.6714999998803,28,word
174,1,M,5,Lentiform Loewenfeld,3.3.8,m,535.9690999999875,28,word
175,1,C,5,Lentiform Loewenfeld,3.3.8,c,631.7037999998429,28,nonword
176,1,C,1,Lentiform Loewenfeld,3.3.8,c,577.9680000002263,28,nonword
177,1,C,5,Lentiform Loewenfeld,3.3.8,c,735.5714999999618,28,nonword
178,1,C,7,Lentiform Loewenfeld,3.3.8,c,538.151000000129,28,nonword
179,1,M,2,Lentiform Loewenfeld,3.3.8,m,526.7782999998308,28,word
180,1,M,5,Lentiform Loewenfeld,3.3.8,m,458.37209999986226,28,word
181,1,M,3,Lentiform Loewenfeld,3.3.8,m,631.9904999999562,28,word
182,1,C,6,Lentiform Loewenfeld,3.3.8,c,583.0629999999073,28,nonword
183,1,M,7,Lentiform Loewenfeld,3.3.8,m,482.8908999999403,28,word
184,1,M,7,Lentiform Loewenfeld,3.3.8,m,466.6065000000526,28,word
185,1,M,4,Lentiform Loewenfeld,3.3.8,m,618.5370999998413,28,word
186,1,M,5,Lentiform Loewenfeld,3.3.8,m,455.806299999822,28,word
187,1,C,2,Lentiform Loewenfeld,3.3.8,c,604.7515000001295,28,nonword
188,1,C,6,Lentiform Loewenfeld,3.3.8,c,599.5280999999377,28,nonword
189,1,C,5,Lentiform Loewenfeld,3.3.8,c,665.4515000001993,28,nonword
190,1,C,2,Lentiform Loewenfeld,3.3.8,c,730.0323999999091,28,nonword
191,1,M,4,Lentiform Loewenfeld,3.3.8,m,574.1441999999806,28,word
192,1,M,1,Lentiform Loewenfeld,3.3.8,m,502.7681999999332,28,word
193,1,M,6,Lentiform Loewenfeld,3.3.8,m,512.4024999999092,28,word
194,1,C,2,Lentiform Loewenfeld,3.3.8,c,654.4582000000519,28,nonword
195,1,M,6,Lentiform Loewenfeld,3.3.8,m,465.0590000000084,28,word
196,1,M,3,Lentiform Loewenfeld,3.3.8,m,498.6793999997899,28,word
197,1,M,2,Lentiform Loewenfeld,3.3.8,m,518.4843999999575,28,word
198,1,C,2,Lentiform Loewenfeld,3.3.8,c,544.0796000001719,28,nonword
199,1,M,5,Lentiform Loewenfeld,3.3.8,m,535.3634000001475,28,word
200,1,M,1,Lentiform Loewenfeld,3.3.8,m,726.4450999998953,28,word
201,1,C,7,Lentiform Loewenfeld,3.3.8,c,630.248299999861,28,nonword
202,1,C,7,Lentiform Loewenfeld,3.3.8,c,772.5084000000497,28,nonword
203,1,M,1,Lentiform Loewenfeld,3.3.8,m,573.0175000000745,28,word
204,1,C,6,Lentiform Loewenfeld,3.3.8,c,557.3147999999346,28,nonword
205,1,C,3,Lentiform Loewenfeld,3.3.8,c,676.6162999998778,28,nonword
206,1,M,4,Lentiform Loewenfeld,3.3.8,m,569.533400000073,28,word
207,1,C,2,Lentiform Loewenfeld,3.3.8,c,643.7835000000196,28,nonword
208,1,C,5,Lentiform Loewenfeld,3.3.8,c,567.8692999999039,28,nonword
209,1,C,6,Lentiform Loewenfeld,3.3.8,c,553.1288000000641,28,nonword
210,1,C,1,Lentiform Loewenfeld,3.3.8,c,995.9714000000386,28,nonword
211,1,M,6,Lentiform Loewenfeld,3.3.8,m,854.5124000001233,28,word
212,1,C,6,Lentiform Loewenfeld,3.3.8,c,593.639899999951,28,nonword
213,1,C,7,Lentiform Loewenfeld,3.3.8,c,576.5619000000879,28,nonword
214,1,C,5,Lentiform Loewenfeld,3.3.8,c,750.999300000025,28,nonword
215,1,M,2,Lentiform Loewenfeld,3.3.8,m,582.7385999999242,28,word
216,0,C,5,Lentiform Loewenfeld,3.3.8,m,972.6842999999644,28,nonword
217,1,C,2,Lentiform Loewenfeld,3.3.8,c,841.0517000001855,28,nonword
218,1,M,4,Lentiform Loewenfeld,3.3.8,m,564.3087000000523,28,word
219,1,C,5,Lentiform Loewenfeld,3.3.8,c,664.3816000001971,28,nonword
220,1,M,3,Lentiform Loewenfeld,3.3.8,m,659.4748999999138,28,word
221,1,C,1,Lentiform Loewenfeld,3.3.8,c,608.4346999999834,28,nonword
222,1,C,7,Lentiform Loewenfeld,3.3.8,c,757.563300000038,28,nonword
223,1,C,5,Lentiform Loewenfeld,3.3.8,c,634.4120000000112,28,nonword
224,1,C,7,Lentiform Loewenfeld,3.3.8,c,1318.8687999999383,28,nonword
225,1,M,1,Lentiform Loewenfeld,3.3.8,m,609.6766000000061,28,word
226,1,C,4,Lentiform Loewenfeld,3.3.8,c,794.8050999998813,28,nonword
227,1,M,5,Lentiform Loewenfeld,3.3.8,m,566.1686999998055,28,word
228,1,M,6,Lentiform Loewenfeld,3.3.8,m,668.66819999984,28,word
229,1,M,4,Lentiform Loewenfeld,3.3.8,m,585.8968000001041,28,word
230,1,C,4,Lentiform Loewenfeld,3.3.8,c,559.1608000000706,28,nonword
231,1,M,1,Lentiform Loewenfeld,3.3.8,m,474.9369999998016,28,word
232,1,C,5,Lentiform Loewenfeld,3.3.8,c,762.4115000000456,28,nonword
233,1,C,3,Lentiform Loewenfeld,3.3.8,c,648.4281999999657,28,nonword
234,1,M,4,Lentiform Loewenfeld,3.3.8,m,609.2220000001835,28,word
235,1,M,2,Lentiform Loewenfeld,3.3.8,m,553.9743999999482,28,word
236,1,M,4,Lentiform Loewenfeld,3.3.8,m,692.6365000001388,28,word
237,1,M,6,Lentiform Loewenfeld,3.3.8,m,517.1999000000069,28,word
238,1,C,1,Lentiform Loewenfeld,3.3.8,c,554.4624999999069,28,nonword
239,1,M,2,Lentiform Loewenfeld,3.3.8,m,499.10859999991953,28,word
240,0,C,1,Lentiform Loewenfeld,3.3.8,m,480.0327000002144,28,nonword
241,1,M,6,Lentiform Loewenfeld,3.3.8,m,810.6728000001749,28,word
242,1,C,3,Lentiform Loewenfeld,3.3.8,c,818.5542000000132,28,nonword
243,0,C,2,Lentiform Loewenfeld,3.3.8,m,859.1026000001002,28,nonword
244,1,C,6,Lentiform Loewenfeld,3.3.8,c,814.3604000001214,28,nonword
245,1,M,1,Lentiform Loewenfeld,3.3.8,m,548.8009000001475,28,word
246,1,M,4,Lentiform Loewenfeld,3.3.8,m,502.3705999999074,28,word
247,1,C,6,Lentiform Loewenfeld,3.3.8,c,811.309599999804,28,nonword
248,1,C,7,Lentiform Loewenfeld,3.3.8,c,676.5699000001187,28,nonword
249,1,M,7,Lentiform Loewenfeld,3.3.8,m,505.1664999999339,28,word
250,1,C,2,Lentiform Loewenfeld,3.3.8,c,575.94020000007,28,nonword
251,1,C,3,Lentiform Loewenfeld,3.3.8,c,766.5394000000088,28,nonword
252,1,M,7,Lentiform Loewenfeld,3.3.8,m,504.2595000001602,28,word
253,1,C,2,Lentiform Loewenfeld,3.3.8,c,615.8723000000464,28,nonword
254,1,C,4,Lentiform Loewenfeld,3.3.8,c,695.1222000002163,28,nonword
255,1,C,3,Lentiform Loewenfeld,3.3.8,c,668.5587999998825,28,nonword
256,1,M,6,Lentiform Loewenfeld,3.3.8,m,578.5104999999749,28,word
257,1,M,3,Lentiform Loewenfeld,3.3.8,m,528.9371999998111,28,word
258,1,M,3,Lentiform Loewenfeld,3.3.8,m,497.8712999999989,28,word
259,1,C,5,Lentiform Loewenfeld,3.3.8,c,548.481899999897,28,nonword
260,1,M,6,Lentiform Loewenfeld,3.3.8,m,567.5962999999756,28,word
261,1,C,5,Lentiform Loewenfeld,3.3.8,c,675.044799999916,28,nonword
262,0,C,2,Lentiform Loewenfeld,3.3.8,m,845.3325999999652,28,nonword
263,1,M,4,Lentiform Loewenfeld,3.3.8,m,646.3758999999845,28,word
264,1,M,7,Lentiform Loewenfeld,3.3.8,m,567.6376000000164,28,word
265,1,M,5,Lentiform Loewenfeld,3.3.8,m,557.450499999919,28,word
266,1,M,1,Lentiform Loewenfeld,3.3.8,m,540.3863999999594,28,word
267,1,C,5,Lentiform Loewenfeld,3.3.8,c,713.307799999835,28,nonword
268,1,C,4,Lentiform Loewenfeld,3.3.8,c,850.5533000001451,28,nonword
269,1,C,7,Lentiform Loewenfeld,3.3.8,c,695.7581999999238,28,nonword
270,1,M,4,Lentiform Loewenfeld,3.3.8,m,553.0270000000019,28,word
271,1,C,1,Lentiform Loewenfeld,3.3.8,c,686.8289999999106,28,nonword
272,1,M,1,Lentiform Loewenfeld,3.3.8,m,621.2448000001023,28,word
273,1,M,1,Lentiform Loewenfeld,3.3.8,m,612.8379999999888,28,word
274,1,C,6,Lentiform Loewenfeld,3.3.8,c,718.441000000108,28,nonword
275,1,C,3,Lentiform Loewenfeld,3.3.8,c,689.2624999999534,28,nonword
276,1,C,2,Lentiform Loewenfeld,3.3.8,c,577.277499999851,28,nonword
277,1,C,7,Lentiform Loewenfeld,3.3.8,c,637.0176000002539,28,nonword
278,1,M,4,Lentiform Loewenfeld,3.3.8,m,897.7748000001302,28,word
279,1,M,1,Lentiform Loewenfeld,3.3.8,m,618.8553000000538,28,word
280,1,C,3,Lentiform Loewenfeld,3.3.8,c,611.9501000000164,28,nonword
281,1,C,5,Lentiform Loewenfeld,3.3.8,c,761.3483000000706,28,nonword
282,1,C,5,Lentiform Loewenfeld,3.3.8,c,634.6468999999342,28,nonword
283,1,M,3,Lentiform Loewenfeld,3.3.8,m,567.5646000000415,28,word
284,1,C,4,Lentiform Loewenfeld,3.3.8,c,574.1681000001263,28,nonword
285,1,M,7,Lentiform Loewenfeld,3.3.8,m,653.8238000000129,28,word
286,1,M,2,Lentiform Loewenfeld,3.3.8,m,505.05449999985285,28,word
287,1,M,3,Lentiform Loewenfeld,3.3.8,m,483.6143999999622,28,word
288,1,M,5,Lentiform Loewenfeld,3.3.8,m,501.4204000000609,28,word
289,1,C,3,Lentiform Loewenfeld,3.3.8,c,537.1853000000119,28,nonword
290,1,C,6,Lentiform Loewenfeld,3.3.8,c,709.3203999999678,28,nonword
291,1,C,1,Lentiform Loewenfeld,3.3.8,c,530.5587999999989,28,nonword
292,1,C,6,Lentiform Loewenfeld,3.3.8,c,631.3217999999179,28,nonword
293,1,M,6,Lentiform Loewenfeld,3.3.8,m,569.9070999997202,28,word
294,1,M,7,Lentiform Loewenfeld,3.3.8,m,492.2172000000719,28,word
295,1,C,7,Lentiform Loewenfeld,3.3.8,c,571.1645000000717,28,nonword
296,1,C,4,Lentiform Loewenfeld,3.3.8,c,732.9466000000248,28,nonword
297,1,C,5,Lentiform Loewenfeld,3.3.8,c,719.8764999998966,28,nonword
298,1,M,3,Lentiform Loewenfeld,3.3.8,m,605.606599999941,28,word
299,1,C,4,Lentiform Loewenfeld,3.3.8,c,594.7315999998245,28,nonword
300,1,M,6,Lentiform Loewenfeld,3.3.8,m,570.3437999999151,28,word
301,1,C,4,Lentiform Loewenfeld,3.3.8,c,568.4318000000203,28,nonword
302,1,C,7,Lentiform Loewenfeld,3.3.8,c,506.87329999997746,28,nonword
303,1,C,4,Lentiform Loewenfeld,3.3.8,c,711.6668000000063,28,nonword
304,1,M,2,Lentiform Loewenfeld,3.3.8,m,552.4000000001397,28,word
305,1,M,3,Lentiform Loewenfeld,3.3.8,m,544.6823999999324,28,word
306,1,C,1,Lentiform Loewenfeld,3.3.8,c,679.2843999997713,28,nonword
307,1,C,7,Lentiform Loewenfeld,3.3.8,c,645.7104999998119,28,nonword
308,1,C,7,Lentiform Loewenfeld,3.3.8,c,534.3352999999188,28,nonword
309,1,M,5,Lentiform Loewenfeld,3.3.8,m,673.576199999894,28,word
310,1,M,3,Lentiform Loewenfeld,3.3.8,m,841.20410000009,28,word
311,1,C,5,Lentiform Loewenfeld,3.3.8,c,661.7493999998551,28,nonword
312,1,C,2,Lentiform Loewenfeld,3.3.8,c,684.813599999994,28,nonword
313,1,C,6,Lentiform Loewenfeld,3.3.8,c,527.5903000000399,28,nonword
314,1,M,6,Lentiform Loewenfeld,3.3.8,m,690.1923999999417,28,word
315,1,M,1,Lentiform Loewenfeld,3.3.8,m,559.9493000000948,28,word
316,1,M,5,Lentiform Loewenfeld,3.3.8,m,582.5792000000365,28,word
317,1,C,3,Lentiform Loewenfeld,3.3.8,c,699.6766999999527,28,nonword
318,1,M,5,Lentiform Loewenfeld,3.3.8,m,508.2815999999875,28,word
319,1,M,3,Lentiform Loewenfeld,3.3.8,m,481.5405000000028,28,word
320,1,M,2,Lentiform Loewenfeld,3.3.8,m,497.65860000019893,28,word
321,1,M,3,Lentiform Loewenfeld,3.3.8,m,483.2729999999283,28,word
322,1,C,7,Lentiform Loewenfeld,3.3.8,c,569.7377000000561,28,nonword
323,1,M,1,Lentiform Loewenfeld,3.3.8,m,484.5372999999672,28,word
324,1,C,1,Lentiform Loewenfeld,3.3.8,c,620.2742000001017,28,nonword
325,1,M,3,Lentiform Loewenfeld,3.3.8,m,519.1326000000117,28,word
326,1,M,3,Lentiform Loewenfeld,3.3.8,m,525.1866000000155,28,word
327,1,M,6,Lentiform Loewenfeld,3.3.8,m,480.3110000002198,28,word
328,1,C,5,Lentiform Loewenfeld,3.3.8,c,530.0726000001887,28,nonword
329,0,M,2,Lentiform Loewenfeld,3.3.8,c,557.3645000000251,28,word
330,1,M,6,Lentiform Loewenfeld,3.3.8,m,477.64139999996405,28,word
331,1,M,1,Lentiform Loewenfeld,3.3.8,m,959.911100000143,28,word
332,1,M,4,Lentiform Loewenfeld,3.3.8,m,531.9659999998985,28,word
333,1,C,7,Lentiform Loewenfeld,3.3.8,c,720.0744000000414,28,nonword
334,1,M,6,Lentiform Loewenfeld,3.3.8,m,525.4972000000998,28,word
335,1,M,6,Lentiform Loewenfeld,3.3.8,m,462.58660000003874,28,word
336,1,C,5,Lentiform Loewenfeld,3.3.8,c,624.0529999999562,28,nonword
337,1,C,6,Lentiform Loewenfeld,3.3.8,c,868.6744000000181,28,nonword
338,1,M,5,Lentiform Loewenfeld,3.3.8,m,487.7271999999648,28,word
339,1,M,5,Lentiform Loewenfeld,3.3.8,m,549.3877000000793,28,word
340,1,M,2,Lentiform Loewenfeld,3.3.8,m,464.1264999998966,28,word
341,1,C,4,Lentiform Loewenfeld,3.3.8,c,504.2145999999484,28,nonword
342,1,C,2,Lentiform Loewenfeld,3.3.8,c,685.4861999999266,28,nonword
343,1,C,2,Lentiform Loewenfeld,3.3.8,c,612.9445999999298,28,nonword
344,1,M,5,Lentiform Loewenfeld,3.3.8,m,525.0055999998003,28,word
345,1,M,7,Lentiform Loewenfeld,3.3.8,m,493.127000000095,28,word
346,1,C,7,Lentiform Loewenfeld,3.3.8,c,588.7554999999702,28,nonword
347,1,C,2,Lentiform Loewenfeld,3.3.8,c,660.8530000000028,28,nonword
348,1,C,1,Lentiform Loewenfeld,3.3.8,c,671.9240999999456,28,nonword
349,1,M,1,Lentiform Loewenfeld,3.3.8,m,588.5325000000885,28,word
350,1,M,5,Lentiform Loewenfeld,3.3.8,m,519.3066999999573,28,word
351,1,C,2,Lentiform Loewenfeld,3.3.8,c,542.7225000002654,28,nonword
352,1,M,5,Lentiform Loewenfeld,3.3.8,m,500.5471999999136,28,word
353,1,M,1,Lentiform Loewenfeld,3.3.8,m,544.6481999998214,28,word
354,1,M,3,Lentiform Loewenfeld,3.3.8,m,447.5818000000436,28,word
355,1,M,6,Lentiform Loewenfeld,3.3.8,m,554.0563000001712,28,word
356,1,C,4,Lentiform Loewenfeld,3.3.8,c,651.8330999999307,28,nonword
357,1,M,2,Lentiform Loewenfeld,3.3.8,m,439.5750999999,28,word
358,1,M,3,Lentiform Loewenfeld,3.3.8,m,506.690300000133,28,word
359,1,C,2,Lentiform Loewenfeld,3.3.8,c,710.6792999999598,28,nonword
360,1,M,1,Lentiform Loewenfeld,3.3.8,m,491.7288000000408,28,word
361,1,M,2,Lentiform Loewenfeld,3.3.8,m,479.3638000000501,28,word
362,1,C,3,Lentiform Loewenfeld,3.3.8,c,618.65559999994,28,nonword
363,1,M,3,Lentiform Loewenfeld,3.3.8,m,411.05039999994915,28,word
364,1,M,3,Lentiform Loewenfeld,3.3.8,m,450.82779999997,28,word
365,1,C,6,Lentiform Loewenfeld,3.3.8,c,645.6594000000041,28,nonword
366,1,C,5,Lentiform Loewenfeld,3.3.8,c,631.7488000000594,28,nonword
367,1,M,3,Lentiform Loewenfeld,3.3.8,m,488.96830000006594,28,word
368,1,C,7,Lentiform Loewenfeld,3.3.8,c,648.7461999999359,28,nonword
369,1,M,4,Lentiform Loewenfeld,3.3.8,m,479.00760000001173,28,word
370,1,M,3,Lentiform Loewenfeld,3.3.8,m,557.295599999954,28,word
371,1,M,6,Lentiform Loewenfeld,3.3.8,m,498.0847000000067,28,word
372,1,C,3,Lentiform Loewenfeld,3.3.8,c,496.31180000002496,28,nonword
373,1,M,7,Lentiform Loewenfeld,3.3.8,m,426.41270000010263,28,word
374,1,M,2,Lentiform Loewenfeld,3.3.8,m,431.0361999999732,28,word
375,1,M,1,Lentiform Loewenfeld,3.3.8,m,460.4925999998813,28,word
376,1,C,7,Lentiform Loewenfeld,3.3.8,c,648.0929000000469,28,nonword
377,1,C,1,Lentiform Loewenfeld,3.3.8,c,592.3504000001121,28,nonword
378,1,C,1,Lentiform Loewenfeld,3.3.8,c,1049.655899999896,28,nonword
379,1,M,1,Lentiform Loewenfeld,3.3.8,m,821.8641000000061,28,word
380,1,M,3,Lentiform Loewenfeld,3.3.8,m,595.2671000001719,28,word
381,1,M,6,Lentiform Loewenfeld,3.3.8,m,593.0351000000956,28,word
382,1,C,7,Lentiform Loewenfeld,3.3.8,c,605.8417999999365,28,nonword
383,1,C,2,Lentiform Loewenfeld,3.3.8,c,582.4281999999657,28,nonword
384,1,C,1,Lentiform Loewenfeld,3.3.8,c,578.1922999998787,28,nonword
385,1,M,4,Lentiform Loewenfeld,3.3.8,m,579.4479999998584,28,word
386,1,C,3,Lentiform Loewenfeld,3.3.8,c,594.7123999998439,28,nonword
387,1,C,1,Lentiform Loewenfeld,3.3.8,c,577.9706999998307,28,nonword
388,1,C,3,Lentiform Loewenfeld,3.3.8,c,540.0732000001008,28,nonword
389,1,C,7,Lentiform Loewenfeld,3.3.8,c,602.2139000000898,28,nonword
390,1,M,7,Lentiform Loewenfeld,3.3.8,m,403.93379999988247,28,word
391,1,C,2,Lentiform Loewenfeld,3.3.8,c,664.7406000001356,28,nonword
392,1,M,7,Lentiform Loewenfeld,3.3.8,m,518.339599999832,28,word
393,1,C,6,Lentiform Loewenfeld,3.3.8,c,579.4491000000853,28,nonword
394,1,M,3,Lentiform Loewenfeld,3.3.8,m,565.0718999999808,28,word
395,1,M,1,Lentiform Loewenfeld,3.3.8,m,818.6225000001723,28,word
396,1,M,7,Lentiform Loewenfeld,3.3.8,m,555.2283000000753,28,word
397,1,M,7,Lentiform Loewenfeld,3.3.8,m,564.5328000001609,28,word
398,1,C,2,Lentiform Loewenfeld,3.3.8,c,910.7626999999629,28,nonword
399,1,M,3,Lentiform Loewenfeld,3.3.8,m,640.0092000000877,28,word
400,1,C,6,Lentiform Loewenfeld,3.3.8,c,690.5252000000328,28,nonword
401,1,M,6,Lentiform Loewenfeld,3.3.8,m,475.5193999998737,28,word
402,1,C,3,Lentiform Loewenfeld,3.3.8,c,590.1212000000523,28,nonword
403,1,C,1,Lentiform Loewenfeld,3.3.8,c,583.7144999998854,28,nonword
404,1,M,7,Lentiform Loewenfeld,3.3.8,m,528.3532000000123,28,word
405,1,C,3,Lentiform Loewenfeld,3.3.8,c,557.9448999997694,28,nonword
406,1,C,3,Lentiform Loewenfeld,3.3.8,c,574.3788000000641,28,nonword
407,1,M,7,Lentiform Loewenfeld,3.3.8,m,552.4802999999374,28,word
408,1,C,5,Lentiform Loewenfeld,3.3.8,c,630.9183999998495,28,nonword
409,1,M,4,Lentiform Loewenfeld,3.3.8,m,518.154499999946,28,word
410,1,M,7,Lentiform Loewenfeld,3.3.8,m,759.1199000000488,28,word
411,1,M,7,Lentiform Loewenfeld,3.3.8,m,482.87449999991804,28,word
412,1,C,6,Lentiform Loewenfeld,3.3.8,c,742.6418000002159,28,nonword
413,1,M,2,Lentiform Loewenfeld,3.3.8,m,526.391799999983,28,word
414,1,M,2,Lentiform Loewenfeld,3.3.8,m,452.5303000002168,28,word
415,1,C,2,Lentiform Loewenfeld,3.3.8,c,549.596400000155,28,nonword
416,1,C,1,Lentiform Loewenfeld,3.3.8,c,551.5287999998545,28,nonword
417,1,C,4,Lentiform Loewenfeld,3.3.8,c,631.2853999999352,28,nonword
418,1,C,5,Lentiform Loewenfeld,3.3.8,c,635.375299999956,28,nonword
419,1,M,4,Lentiform Loewenfeld,3.3.8,m,493.9794000000693,28,word
