Unnamed: 0,correct_keyboard_response_1,correct_response,flanker_condition,opensesame_codename,opensesame_version,response_keyboard_response_1,response_time_keyboard_response_1,subject_nr,target_type
0,1,M,7,Lentiform Loewenfeld,3.3.8,m,719.8579999999492,14,word
1,1,C,5,Lentiform Loewenfeld,3.3.8,c,723.8966000000073,14,nonword
2,1,M,5,Lentiform Loewenfeld,3.3.8,m,593.1512999999977,14,word
3,1,M,2,Lentiform Loewenfeld,3.3.8,m,615.8026999999711,14,word
4,1,M,3,Lentiform Loewenfeld,3.3.8,m,568.3591999999771,14,word
5,1,C,6,Lentiform Loewenfeld,3.3.8,c,702.12320000006,14,nonword
6,1,M,5,Lentiform Loewenfeld,3.3.8,m,642.296800000011,14,word
7,1,M,1,Lentiform Loewenfeld,3.3.8,m,532.3481999999785,14,word
8,0,C,5,Lentiform Loewenfeld,3.3.8,m,490.25600000002305,14,nonword
9,1,M,7,Lentiform Loewenfeld,3.3.8,m,485.6585000000196,14,word
10,1,C,2,Lentiform Loewenfeld,3.3.8,c,642.2597999999998,14,nonword
11,1,M,1,Lentiform Loewenfeld,3.3.8,m,634.6135999999824,14,word
12,1,M,7,Lentiform Loewenfeld,3.3.8,m,543.8534999999683,14,word
13,1,M,1,Lentiform Loewenfeld,3.3.8,m,563.742600000056,14,word
14,1,C,4,Lentiform Loewenfeld,3.3.8,c,719.4631999999983,14,nonword
15,1,C,3,Lentiform Loewenfeld,3.3.8,c,558.5107000000135,14,nonword
16,1,M,4,Lentiform Loewenfeld,3.3.8,m,632.443499999994,14,word
17,1,M,6,Lentiform Loewenfeld,3.3.8,m,536.6777000000002,14,word
18,1,M,4,Lentiform Loewenfeld,3.3.8,m,569.2140000000072,14,word
19,1,C,4,Lentiform Loewenfeld,3.3.8,c,555.676199999958,14,nonword
20,1,C,3,Lentiform Loewenfeld,3.3.8,c,556.0026000000071,14,nonword
21,1,M,1,Lentiform Loewenfeld,3.3.8,m,522.1982999999891,14,word
22,1,M,1,Lentiform Loewenfeld,3.3.8,m,513.641100000008,14,word
23,1,M,1,Lentiform Loewenfeld,3.3.8,m,469.22140000000945,14,word
24,1,M,5,Lentiform Loewenfeld,3.3.8,m,515.4515999999712,14,word
25,1,C,4,Lentiform Loewenfeld,3.3.8,c,585.181099999958,14,nonword
26,1,M,2,Lentiform Loewenfeld,3.3.8,m,497.7861999999732,14,word
27,1,C,6,Lentiform Loewenfeld,3.3.8,c,705.8804999999993,14,nonword
28,1,M,2,Lentiform Loewenfeld,3.3.8,m,639.2732999999716,14,word
29,1,M,6,Lentiform Loewenfeld,3.3.8,m,540.9184999999998,14,word
30,1,C,2,Lentiform Loewenfeld,3.3.8,c,567.7978999999759,14,nonword
31,0,C,1,Lentiform Loewenfeld,3.3.8,m,591.8689000000304,14,nonword
32,1,M,7,Lentiform Loewenfeld,3.3.8,m,524.642600000021,14,word
33,1,C,3,Lentiform Loewenfeld,3.3.8,c,634.7237000000314,14,nonword
34,1,C,3,Lentiform Loewenfeld,3.3.8,c,635.251500000013,14,nonword
35,1,M,3,Lentiform Loewenfeld,3.3.8,m,618.9944000000542,14,word
36,1,C,4,Lentiform Loewenfeld,3.3.8,c,565.2020000000193,14,nonword
37,1,M,3,Lentiform Loewenfeld,3.3.8,m,582.8588000000163,14,word
38,1,M,7,Lentiform Loewenfeld,3.3.8,m,510.1743000000424,14,word
39,1,M,1,Lentiform Loewenfeld,3.3.8,m,623.0307000000321,14,word
40,1,C,6,Lentiform Loewenfeld,3.3.8,c,612.6244000000588,14,nonword
41,1,C,4,Lentiform Loewenfeld,3.3.8,c,585.334199999983,14,nonword
42,1,M,6,Lentiform Loewenfeld,3.3.8,m,496.877999999997,14,word
43,1,C,1,Lentiform Loewenfeld,3.3.8,c,442.41539999996894,14,nonword
44,1,M,6,Lentiform Loewenfeld,3.3.8,m,492.8327000000281,14,word
45,0,M,3,Lentiform Loewenfeld,3.3.8,c,1063.4191999999748,14,word
46,1,C,1,Lentiform Loewenfeld,3.3.8,c,770.2232999999542,14,nonword
47,1,M,4,Lentiform Loewenfeld,3.3.8,m,474.10109999999986,14,word
48,1,M,6,Lentiform Loewenfeld,3.3.8,m,518.0158999999985,14,word
49,1,C,3,Lentiform Loewenfeld,3.3.8,c,591.5407000000123,14,nonword
50,1,C,2,Lentiform Loewenfeld,3.3.8,c,571.9466000000248,14,nonword
51,1,M,5,Lentiform Loewenfeld,3.3.8,m,869.4971000000078,14,word
52,1,C,7,Lentiform Loewenfeld,3.3.8,c,561.6683000000485,14,nonword
53,1,C,2,Lentiform Loewenfeld,3.3.8,c,571.880600000004,14,nonword
54,1,C,5,Lentiform Loewenfeld,3.3.8,c,615.4941000000108,14,nonword
55,1,C,3,Lentiform Loewenfeld,3.3.8,c,571.2079000000085,14,nonword
56,1,M,2,Lentiform Loewenfeld,3.3.8,m,478.40989999999874,14,word
57,1,C,4,Lentiform Loewenfeld,3.3.8,c,604.345799999981,14,nonword
58,1,M,2,Lentiform Loewenfeld,3.3.8,m,492.0424999999814,14,word
59,1,C,7,Lentiform Loewenfeld,3.3.8,c,594.7750999999989,14,nonword
60,1,M,5,Lentiform Loewenfeld,3.3.8,m,657.0110999999742,14,word
61,1,M,3,Lentiform Loewenfeld,3.3.8,m,512.7412000000186,14,word
62,1,M,3,Lentiform Loewenfeld,3.3.8,m,562.4671000000089,14,word
63,1,C,1,Lentiform Loewenfeld,3.3.8,c,479.35639999998966,14,nonword
64,1,M,2,Lentiform Loewenfeld,3.3.8,m,532.9489000000176,14,word
65,1,C,1,Lentiform Loewenfeld,3.3.8,c,576.350299999991,14,nonword
66,1,C,5,Lentiform Loewenfeld,3.3.8,c,629.4678000000422,14,nonword
67,1,C,7,Lentiform Loewenfeld,3.3.8,c,624.860100000049,14,nonword
68,1,M,4,Lentiform Loewenfeld,3.3.8,m,620.8928000000305,14,word
69,1,M,6,Lentiform Loewenfeld,3.3.8,m,581.8112000000547,14,word
70,1,M,5,Lentiform Loewenfeld,3.3.8,m,493.342399999965,14,word
71,1,C,1,Lentiform Loewenfeld,3.3.8,c,632.2280000000028,14,nonword
72,1,M,7,Lentiform Loewenfeld,3.3.8,m,583.7935999999754,14,word
73,0,M,7,Lentiform Loewenfeld,3.3.8,c,713.0096999999951,14,word
74,1,C,4,Lentiform Loewenfeld,3.3.8,c,613.2613999999594,14,nonword
75,1,C,1,Lentiform Loewenfeld,3.3.8,c,575.2935000000289,14,nonword
76,0,C,1,Lentiform Loewenfeld,3.3.8,m,462.3497999999672,14,nonword
77,1,C,6,Lentiform Loewenfeld,3.3.8,c,535.0858000000007,14,nonword
78,1,M,4,Lentiform Loewenfeld,3.3.8,m,469.3274000000092,14,word
79,1,C,7,Lentiform Loewenfeld,3.3.8,c,516.357299999916,14,nonword
80,1,C,5,Lentiform Loewenfeld,3.3.8,c,536.9187000000384,14,nonword
81,1,C,4,Lentiform Loewenfeld,3.3.8,c,594.9457000000402,14,nonword
82,1,M,7,Lentiform Loewenfeld,3.3.8,m,527.875,14,word
83,1,C,4,Lentiform Loewenfeld,3.3.8,c,553.1479999999865,14,nonword
84,1,C,5,Lentiform Loewenfeld,3.3.8,c,565.8730000000214,14,nonword
85,1,C,6,Lentiform Loewenfeld,3.3.8,c,539.0987999999779,14,nonword
86,1,C,4,Lentiform Loewenfeld,3.3.8,c,625.6757000000216,14,nonword
87,1,M,3,Lentiform Loewenfeld,3.3.8,m,483.71019999997225,14,word
88,1,M,1,Lentiform Loewenfeld,3.3.8,m,454.7682999999961,14,word
89,0,M,3,Lentiform Loewenfeld,3.3.8,c,747.7053999999771,14,word
90,1,M,6,Lentiform Loewenfeld,3.3.8,m,606.2711999999592,14,word
91,1,C,3,Lentiform Loewenfeld,3.3.8,c,610.8072999999276,14,nonword
92,1,C,3,Lentiform Loewenfeld,3.3.8,c,599.2479000000749,14,nonword
93,0,C,5,Lentiform Loewenfeld,3.3.8,m,596.7973999999231,14,nonword
94,1,C,5,Lentiform Loewenfeld,3.3.8,c,713.8919999999925,14,nonword
95,1,M,6,Lentiform Loewenfeld,3.3.8,m,530.9367999999668,14,word
96,1,C,6,Lentiform Loewenfeld,3.3.8,c,638.9821999999695,14,nonword
97,1,C,6,Lentiform Loewenfeld,3.3.8,c,607.3947999999509,14,nonword
98,1,M,4,Lentiform Loewenfeld,3.3.8,m,466.45799999998417,14,word
99,1,C,7,Lentiform Loewenfeld,3.3.8,c,486.85699999995995,14,nonword
100,1,C,1,Lentiform Loewenfeld,3.3.8,c,585.0728000000236,14,nonword
101,1,C,7,Lentiform Loewenfeld,3.3.8,c,512.4902000000002,14,nonword
102,1,C,3,Lentiform Loewenfeld,3.3.8,c,493.5321000000695,14,nonword
103,1,M,2,Lentiform Loewenfeld,3.3.8,m,524.4423000000534,14,word
104,1,C,3,Lentiform Loewenfeld,3.3.8,c,521.9812999999849,14,nonword
105,1,C,6,Lentiform Loewenfeld,3.3.8,c,721.7537000000593,14,nonword
106,1,M,7,Lentiform Loewenfeld,3.3.8,m,484.6217000000761,14,word
107,1,C,1,Lentiform Loewenfeld,3.3.8,c,556.5005999999121,14,nonword
108,1,M,6,Lentiform Loewenfeld,3.3.8,m,532.7868000000599,14,word
109,1,M,4,Lentiform Loewenfeld,3.3.8,m,615.9590999999782,14,word
110,1,M,2,Lentiform Loewenfeld,3.3.8,m,464.52189999993425,14,word
111,1,M,6,Lentiform Loewenfeld,3.3.8,m,423.89850000006845,14,word
112,1,C,6,Lentiform Loewenfeld,3.3.8,c,597.4605999999912,14,nonword
113,1,C,2,Lentiform Loewenfeld,3.3.8,c,596.6896999999881,14,nonword
114,1,C,6,Lentiform Loewenfeld,3.3.8,c,632.5815999999759,14,nonword
115,1,C,2,Lentiform Loewenfeld,3.3.8,c,587.6429999999818,14,nonword
116,1,M,3,Lentiform Loewenfeld,3.3.8,m,540.7037000000128,14,word
117,1,C,4,Lentiform Loewenfeld,3.3.8,c,535.9822999999742,14,nonword
118,1,M,4,Lentiform Loewenfeld,3.3.8,m,555.5693999999785,14,word
119,1,C,3,Lentiform Loewenfeld,3.3.8,c,661.6257999999216,14,nonword
120,1,M,2,Lentiform Loewenfeld,3.3.8,m,550.3140000000712,14,word
121,1,M,7,Lentiform Loewenfeld,3.3.8,m,421.1054000000004,14,word
122,1,C,6,Lentiform Loewenfeld,3.3.8,c,625.1416999999783,14,nonword
123,1,M,4,Lentiform Loewenfeld,3.3.8,m,383.37020000000484,14,word
124,1,C,6,Lentiform Loewenfeld,3.3.8,c,516.1470000000554,14,nonword
125,1,M,2,Lentiform Loewenfeld,3.3.8,m,488.67740000004414,14,word
126,0,M,2,Lentiform Loewenfeld,3.3.8,c,760.7765000000363,14,word
127,1,C,7,Lentiform Loewenfeld,3.3.8,c,638.4666000000434,14,nonword
128,1,C,5,Lentiform Loewenfeld,3.3.8,c,626.3473000000231,14,nonword
129,1,M,5,Lentiform Loewenfeld,3.3.8,m,628.9616000000387,14,word
130,1,C,4,Lentiform Loewenfeld,3.3.8,c,543.9662000000244,14,nonword
131,1,M,6,Lentiform Loewenfeld,3.3.8,m,484.01839999994263,14,word
132,1,M,4,Lentiform Loewenfeld,3.3.8,m,481.5588000000571,14,word
133,1,M,2,Lentiform Loewenfeld,3.3.8,m,457.45279999997,14,word
134,1,C,4,Lentiform Loewenfeld,3.3.8,c,566.8784999999334,14,nonword
135,1,M,6,Lentiform Loewenfeld,3.3.8,m,456.08399999997346,14,word
136,1,M,7,Lentiform Loewenfeld,3.3.8,m,508.49170000007143,14,word
137,0,C,2,Lentiform Loewenfeld,3.3.8,m,377.9029000000446,14,nonword
138,1,M,4,Lentiform Loewenfeld,3.3.8,m,549.3271000000532,14,word
139,1,C,5,Lentiform Loewenfeld,3.3.8,c,612.0751000000164,14,nonword
140,0,M,2,Lentiform Loewenfeld,3.3.8,c,493.3941000000341,14,word
141,1,M,1,Lentiform Loewenfeld,3.3.8,m,499.55340000003343,14,word
142,1,M,4,Lentiform Loewenfeld,3.3.8,m,529.099499999953,14,word
143,1,M,4,Lentiform Loewenfeld,3.3.8,m,461.4704999999376,14,word
144,1,C,2,Lentiform Loewenfeld,3.3.8,c,573.8703000000096,14,nonword
145,1,C,6,Lentiform Loewenfeld,3.3.8,c,642.2725999999675,14,nonword
146,0,C,3,Lentiform Loewenfeld,3.3.8,m,568.8554999999469,14,nonword
147,1,C,5,Lentiform Loewenfeld,3.3.8,c,564.5535999999847,14,nonword
148,1,M,1,Lentiform Loewenfeld,3.3.8,m,576.7798000000766,14,word
149,1,C,3,Lentiform Loewenfeld,3.3.8,c,618.9989999998943,14,nonword
150,1,C,3,Lentiform Loewenfeld,3.3.8,c,645.0594000000856,14,nonword
151,1,C,2,Lentiform Loewenfeld,3.3.8,c,810.4435000000522,14,nonword
152,1,C,7,Lentiform Loewenfeld,3.3.8,c,589.9278000000049,14,nonword
153,1,M,3,Lentiform Loewenfeld,3.3.8,m,776.1914000000106,14,word
154,1,C,7,Lentiform Loewenfeld,3.3.8,c,569.416300000099,14,nonword
155,1,C,5,Lentiform Loewenfeld,3.3.8,c,656.805100000056,14,nonword
156,1,C,2,Lentiform Loewenfeld,3.3.8,c,515.48470000003,14,nonword
157,1,C,5,Lentiform Loewenfeld,3.3.8,c,585.9344000000856,14,nonword
158,1,M,5,Lentiform Loewenfeld,3.3.8,m,441.7856000000029,14,word
159,1,C,6,Lentiform Loewenfeld,3.3.8,c,663.1917999999714,14,nonword
160,1,C,1,Lentiform Loewenfeld,3.3.8,c,566.9665999999852,14,nonword
161,1,C,1,Lentiform Loewenfeld,3.3.8,c,454.5009999999893,14,nonword
162,1,C,6,Lentiform Loewenfeld,3.3.8,c,558.9599999999627,14,nonword
163,1,M,2,Lentiform Loewenfeld,3.3.8,m,481.8393999998807,14,word
164,1,M,4,Lentiform Loewenfeld,3.3.8,m,510.0663999999524,14,word
165,1,M,1,Lentiform Loewenfeld,3.3.8,m,565.7860999999684,14,word
166,1,C,2,Lentiform Loewenfeld,3.3.8,c,639.0546999999788,14,nonword
167,1,M,5,Lentiform Loewenfeld,3.3.8,m,470.9812999999849,14,word
168,1,C,4,Lentiform Loewenfeld,3.3.8,c,623.4081000000006,14,nonword
169,1,M,1,Lentiform Loewenfeld,3.3.8,m,536.422499999986,14,word
170,1,C,7,Lentiform Loewenfeld,3.3.8,c,542.8551000000443,14,nonword
171,1,M,7,Lentiform Loewenfeld,3.3.8,m,448.5669999999227,14,word
172,1,M,7,Lentiform Loewenfeld,3.3.8,m,465.4710000000196,14,word
173,1,C,1,Lentiform Loewenfeld,3.3.8,c,580.3493000000017,14,nonword
174,1,C,1,Lentiform Loewenfeld,3.3.8,c,574.3305999999866,14,nonword
175,1,C,3,Lentiform Loewenfeld,3.3.8,c,556.8276999999653,14,nonword
176,1,M,6,Lentiform Loewenfeld,3.3.8,m,566.2262999999803,14,word
177,1,M,5,Lentiform Loewenfeld,3.3.8,m,535.1478000000352,14,word
178,1,C,3,Lentiform Loewenfeld,3.3.8,c,532.6993000000366,14,nonword
179,1,M,3,Lentiform Loewenfeld,3.3.8,m,470.43599999998696,14,word
180,1,C,7,Lentiform Loewenfeld,3.3.8,c,621.8184000001056,14,nonword
181,1,C,7,Lentiform Loewenfeld,3.3.8,c,495.6903999999631,14,nonword
182,1,M,5,Lentiform Loewenfeld,3.3.8,m,506.60189999995055,14,word
183,1,C,2,Lentiform Loewenfeld,3.3.8,c,728.6938999999547,14,nonword
184,1,C,7,Lentiform Loewenfeld,3.3.8,c,795.5575999999419,14,nonword
185,1,M,1,Lentiform Loewenfeld,3.3.8,m,386.7410000000382,14,word
186,1,C,1,Lentiform Loewenfeld,3.3.8,c,506.64789999998175,14,nonword
187,1,M,3,Lentiform Loewenfeld,3.3.8,m,468.85839999996824,14,word
188,1,C,6,Lentiform Loewenfeld,3.3.8,c,514.4088999999803,14,nonword
189,1,C,2,Lentiform Loewenfeld,3.3.8,c,524.658400000073,14,nonword
190,0,C,6,Lentiform Loewenfeld,3.3.8,m,606.8782000000356,14,nonword
191,1,C,4,Lentiform Loewenfeld,3.3.8,c,710.9478999999701,14,nonword
192,1,M,1,Lentiform Loewenfeld,3.3.8,m,518.984999999986,14,word
193,0,C,2,Lentiform Loewenfeld,3.3.8,m,890.7143999999971,14,nonword
194,1,M,4,Lentiform Loewenfeld,3.3.8,m,443.72529999999097,14,word
195,1,C,2,Lentiform Loewenfeld,3.3.8,c,672.295299999998,14,nonword
196,1,C,7,Lentiform Loewenfeld,3.3.8,c,576.0199999999604,14,nonword
197,1,M,4,Lentiform Loewenfeld,3.3.8,m,579.1099000000395,14,word
198,0,M,1,Lentiform Loewenfeld,3.3.8,c,971.6660999999149,14,word
199,1,M,5,Lentiform Loewenfeld,3.3.8,m,532.5383000000147,14,word
200,1,C,7,Lentiform Loewenfeld,3.3.8,c,556.4549999999581,14,nonword
201,1,M,6,Lentiform Loewenfeld,3.3.8,m,595.4888999999966,14,word
202,1,C,2,Lentiform Loewenfeld,3.3.8,c,551.2382999999681,14,nonword
203,1,M,7,Lentiform Loewenfeld,3.3.8,m,522.5839999999152,14,word
204,1,M,2,Lentiform Loewenfeld,3.3.8,m,766.3320999998832,14,word
205,1,M,7,Lentiform Loewenfeld,3.3.8,m,528.2203999999911,14,word
206,0,C,5,Lentiform Loewenfeld,3.3.8,m,1097.094700000016,14,nonword
207,1,C,6,Lentiform Loewenfeld,3.3.8,c,804.5914999999804,14,nonword
208,1,C,5,Lentiform Loewenfeld,3.3.8,c,620.4505999999819,14,nonword
209,1,C,6,Lentiform Loewenfeld,3.3.8,c,595.3241999999154,14,nonword
210,1,M,1,Lentiform Loewenfeld,3.3.8,m,832.2005000000354,14,word
211,1,C,7,Lentiform Loewenfeld,3.3.8,c,569.2677999999141,14,nonword
212,1,M,3,Lentiform Loewenfeld,3.3.8,m,418.77700000000186,14,word
213,1,C,4,Lentiform Loewenfeld,3.3.8,c,555.1972999999998,14,nonword
214,1,C,1,Lentiform Loewenfeld,3.3.8,c,565.1376999999629,14,nonword
215,1,M,6,Lentiform Loewenfeld,3.3.8,m,512.6766000000061,14,word
216,1,M,2,Lentiform Loewenfeld,3.3.8,m,511.457600000198,14,word
217,1,M,7,Lentiform Loewenfeld,3.3.8,m,460.02169999992475,14,word
218,1,C,6,Lentiform Loewenfeld,3.3.8,c,515.78059999994,14,nonword
219,1,C,7,Lentiform Loewenfeld,3.3.8,c,646.8502999999328,14,nonword
220,1,C,4,Lentiform Loewenfeld,3.3.8,c,979.7410999999847,14,nonword
221,1,C,5,Lentiform Loewenfeld,3.3.8,c,737.7638000000734,14,nonword
222,1,M,6,Lentiform Loewenfeld,3.3.8,m,483.7848000000231,14,word
223,1,M,5,Lentiform Loewenfeld,3.3.8,m,408.11309999995865,14,word
224,1,C,4,Lentiform Loewenfeld,3.3.8,c,567.792799999821,14,nonword
225,1,C,2,Lentiform Loewenfeld,3.3.8,c,594.4641999999294,14,nonword
226,1,M,5,Lentiform Loewenfeld,3.3.8,m,525.4214000001084,14,word
227,1,M,2,Lentiform Loewenfeld,3.3.8,m,477.9542000000365,14,word
228,1,C,2,Lentiform Loewenfeld,3.3.8,c,559.3811999999452,14,nonword
229,1,M,3,Lentiform Loewenfeld,3.3.8,m,522.5033999999287,14,word
230,1,M,4,Lentiform Loewenfeld,3.3.8,m,605.4947999999858,14,word
231,1,M,7,Lentiform Loewenfeld,3.3.8,m,607.5254999999888,14,word
232,1,M,5,Lentiform Loewenfeld,3.3.8,m,643.5669999999227,14,word
233,0,C,6,Lentiform Loewenfeld,3.3.8,m,495.4637000000803,14,nonword
234,1,C,7,Lentiform Loewenfeld,3.3.8,c,627.1737999998732,14,nonword
235,1,M,2,Lentiform Loewenfeld,3.3.8,m,589.9155999999493,14,word
236,1,M,6,Lentiform Loewenfeld,3.3.8,m,658.3460000000196,14,word
237,1,M,6,Lentiform Loewenfeld,3.3.8,m,650.6833999999799,14,word
238,1,C,7,Lentiform Loewenfeld,3.3.8,c,728.5541000000667,14,nonword
239,1,M,6,Lentiform Loewenfeld,3.3.8,m,580.7892999999458,14,word
240,1,M,3,Lentiform Loewenfeld,3.3.8,m,578.8685999999288,14,word
241,0,C,5,Lentiform Loewenfeld,3.3.8,m,662.9054999999935,14,nonword
242,1,M,5,Lentiform Loewenfeld,3.3.8,m,719.3480000001146,14,word
243,1,C,5,Lentiform Loewenfeld,3.3.8,c,705.3288000000175,14,nonword
244,1,C,4,Lentiform Loewenfeld,3.3.8,c,621.0143000000389,14,nonword
245,1,M,3,Lentiform Loewenfeld,3.3.8,m,594.3201999999583,14,word
246,0,C,3,Lentiform Loewenfeld,3.3.8,m,1283.3372000000672,14,nonword
247,1,M,1,Lentiform Loewenfeld,3.3.8,m,483.51009999995586,14,word
248,1,M,6,Lentiform Loewenfeld,3.3.8,m,803.8586999999825,14,word
249,1,C,6,Lentiform Loewenfeld,3.3.8,c,583.919399999897,14,nonword
250,1,M,2,Lentiform Loewenfeld,3.3.8,m,590.0936000001384,14,word
251,1,M,3,Lentiform Loewenfeld,3.3.8,m,531.204700000002,14,word
252,1,C,3,Lentiform Loewenfeld,3.3.8,c,698.5588999999454,14,nonword
253,1,M,1,Lentiform Loewenfeld,3.3.8,m,646.1485000000102,14,word
254,1,M,1,Lentiform Loewenfeld,3.3.8,m,741.844299999997,14,word
255,1,M,4,Lentiform Loewenfeld,3.3.8,m,636.0498999999836,14,word
256,1,M,7,Lentiform Loewenfeld,3.3.8,m,602.4524000001838,14,word
257,1,C,7,Lentiform Loewenfeld,3.3.8,c,666.033800000092,14,nonword
258,1,C,2,Lentiform Loewenfeld,3.3.8,c,607.5676000000676,14,nonword
259,1,M,2,Lentiform Loewenfeld,3.3.8,m,637.9561000000685,14,word
260,1,M,3,Lentiform Loewenfeld,3.3.8,m,673.3290999999736,14,word
261,0,M,4,Lentiform Loewenfeld,3.3.8,c,867.0557000000263,14,word
262,1,C,6,Lentiform Loewenfeld,3.3.8,c,665.5622999998741,14,nonword
263,1,C,4,Lentiform Loewenfeld,3.3.8,c,692.4636000000173,14,nonword
264,1,M,6,Lentiform Loewenfeld,3.3.8,m,648.5047000000486,14,word
265,1,C,4,Lentiform Loewenfeld,3.3.8,c,811.5909000000684,14,nonword
266,1,M,7,Lentiform Loewenfeld,3.3.8,m,614.7693000000436,14,word
267,1,C,2,Lentiform Loewenfeld,3.3.8,c,733.3256000000983,14,nonword
268,1,C,3,Lentiform Loewenfeld,3.3.8,c,683.7256000000052,14,nonword
269,1,M,1,Lentiform Loewenfeld,3.3.8,m,637.608499999973,14,word
270,1,C,1,Lentiform Loewenfeld,3.3.8,c,606.313599999994,14,nonword
271,1,C,4,Lentiform Loewenfeld,3.3.8,c,690.8843000000343,14,nonword
272,1,C,6,Lentiform Loewenfeld,3.3.8,c,883.935199999949,14,nonword
273,1,C,1,Lentiform Loewenfeld,3.3.8,c,907.2828999999911,14,nonword
274,1,M,1,Lentiform Loewenfeld,3.3.8,m,696.108799999929,14,word
275,1,C,1,Lentiform Loewenfeld,3.3.8,c,769.9660000001313,14,nonword
276,1,C,5,Lentiform Loewenfeld,3.3.8,c,612.1594000000041,14,nonword
277,1,C,6,Lentiform Loewenfeld,3.3.8,c,545.0677000000142,14,nonword
278,1,C,5,Lentiform Loewenfeld,3.3.8,c,523.2778000001563,14,nonword
279,1,M,4,Lentiform Loewenfeld,3.3.8,m,848.3596000000834,14,word
280,1,C,3,Lentiform Loewenfeld,3.3.8,c,753.2151000000304,14,nonword
281,1,C,7,Lentiform Loewenfeld,3.3.8,c,752.406500000041,14,nonword
282,1,C,7,Lentiform Loewenfeld,3.3.8,c,609.2773000000743,14,nonword
283,1,M,5,Lentiform Loewenfeld,3.3.8,m,842.0085999999428,14,word
284,1,M,4,Lentiform Loewenfeld,3.3.8,m,650.0557999998564,14,word
285,1,M,2,Lentiform Loewenfeld,3.3.8,m,850.7856000000611,14,word
286,1,C,3,Lentiform Loewenfeld,3.3.8,c,727.2693999999901,14,nonword
287,1,C,5,Lentiform Loewenfeld,3.3.8,c,670.1249000000535,14,nonword
288,1,C,5,Lentiform Loewenfeld,3.3.8,c,575.3449999999721,14,nonword
289,1,M,4,Lentiform Loewenfeld,3.3.8,m,574.4176000000443,14,word
290,1,M,5,Lentiform Loewenfeld,3.3.8,m,578.967399999965,14,word
291,1,M,4,Lentiform Loewenfeld,3.3.8,m,540.906399999978,14,word
292,1,C,7,Lentiform Loewenfeld,3.3.8,c,598.9551999999676,14,nonword
293,1,C,4,Lentiform Loewenfeld,3.3.8,c,589.6742000000086,14,nonword
294,1,M,5,Lentiform Loewenfeld,3.3.8,m,479.3349000000162,14,word
295,1,C,1,Lentiform Loewenfeld,3.3.8,c,560.0355000001146,14,nonword
296,1,C,4,Lentiform Loewenfeld,3.3.8,c,591.875699999975,14,nonword
297,1,C,3,Lentiform Loewenfeld,3.3.8,c,671.7534999998752,14,nonword
298,1,C,3,Lentiform Loewenfeld,3.3.8,c,557.3549000000348,14,nonword
299,1,M,7,Lentiform Loewenfeld,3.3.8,m,578.6995000001043,14,word
300,1,M,4,Lentiform Loewenfeld,3.3.8,m,649.5895000000019,14,word
301,1,M,1,Lentiform Loewenfeld,3.3.8,m,575.4901999998838,14,word
302,1,M,6,Lentiform Loewenfeld,3.3.8,m,580.2100999999093,14,word
303,1,C,2,Lentiform Loewenfeld,3.3.8,c,670.2588999998989,14,nonword
304,1,C,3,Lentiform Loewenfeld,3.3.8,c,599.0052000000142,14,nonword
305,1,M,2,Lentiform Loewenfeld,3.3.8,m,617.4302000000607,14,word
306,1,C,5,Lentiform Loewenfeld,3.3.8,c,610.8026999998838,14,nonword
307,1,M,2,Lentiform Loewenfeld,3.3.8,m,561.3244999998715,14,word
308,1,C,5,Lentiform Loewenfeld,3.3.8,c,528.5618999998551,14,nonword
309,0,M,1,Lentiform Loewenfeld,3.3.8,c,801.610400000005,14,word
310,1,M,1,Lentiform Loewenfeld,3.3.8,m,492.1358000000473,14,word
311,1,M,6,Lentiform Loewenfeld,3.3.8,m,509.8652000001166,14,word
312,1,M,2,Lentiform Loewenfeld,3.3.8,m,451.1927999999607,14,word
313,1,C,3,Lentiform Loewenfeld,3.3.8,c,547.6355000000913,14,nonword
314,1,M,5,Lentiform Loewenfeld,3.3.8,m,509.5836999998428,14,word
315,1,M,3,Lentiform Loewenfeld,3.3.8,m,553.8402999999234,14,word
316,0,C,7,Lentiform Loewenfeld,3.3.8,m,832.871499999892,14,nonword
317,1,M,2,Lentiform Loewenfeld,3.3.8,m,639.7130000001052,14,word
318,1,M,4,Lentiform Loewenfeld,3.3.8,m,553.7949999999255,14,word
319,1,C,5,Lentiform Loewenfeld,3.3.8,c,738.5160000000615,14,nonword
320,1,M,6,Lentiform Loewenfeld,3.3.8,m,666.0468999999575,14,word
321,1,C,5,Lentiform Loewenfeld,3.3.8,c,741.7500999999465,14,nonword
322,1,M,3,Lentiform Loewenfeld,3.3.8,m,501.9399999999441,14,word
323,1,C,1,Lentiform Loewenfeld,3.3.8,c,814.5233000001172,14,nonword
324,1,C,2,Lentiform Loewenfeld,3.3.8,c,761.0309000001289,14,nonword
325,1,M,3,Lentiform Loewenfeld,3.3.8,m,592.062900000019,14,word
326,1,M,3,Lentiform Loewenfeld,3.3.8,m,676.499199999962,14,word
327,1,C,4,Lentiform Loewenfeld,3.3.8,c,621.8782000000356,14,nonword
328,1,C,4,Lentiform Loewenfeld,3.3.8,c,569.2802000000374,14,nonword
329,0,M,7,Lentiform Loewenfeld,3.3.8,c,1259.548300000024,14,word
330,1,M,3,Lentiform Loewenfeld,3.3.8,m,607.0505999999586,14,word
331,1,C,2,Lentiform Loewenfeld,3.3.8,c,715.9060000000754,14,nonword
332,1,C,2,Lentiform Loewenfeld,3.3.8,c,992.107299999916,14,nonword
333,1,M,1,Lentiform Loewenfeld,3.3.8,m,542.9765000001062,14,word
334,1,M,4,Lentiform Loewenfeld,3.3.8,m,930.7060000000056,14,word
335,1,M,5,Lentiform Loewenfeld,3.3.8,m,640.3845999999903,14,word
336,1,M,6,Lentiform Loewenfeld,3.3.8,m,497.0632999999216,14,word
337,1,C,1,Lentiform Loewenfeld,3.3.8,c,751.2796999998391,14,nonword
338,1,M,3,Lentiform Loewenfeld,3.3.8,m,449.2053999998607,14,word
339,1,M,1,Lentiform Loewenfeld,3.3.8,m,610.767300000065,14,word
340,0,C,5,Lentiform Loewenfeld,3.3.8,m,555.4716999998782,14,nonword
341,1,M,5,Lentiform Loewenfeld,3.3.8,m,811.0569000000833,14,word
342,1,C,7,Lentiform Loewenfeld,3.3.8,c,720.6023000000278,14,nonword
343,1,M,3,Lentiform Loewenfeld,3.3.8,m,552.0557000001427,14,word
344,1,C,4,Lentiform Loewenfeld,3.3.8,c,654.7272000001976,14,nonword
345,1,C,5,Lentiform Loewenfeld,3.3.8,c,615.5838999999687,14,nonword
346,1,M,5,Lentiform Loewenfeld,3.3.8,m,646.1475000000792,14,word
347,1,C,1,Lentiform Loewenfeld,3.3.8,c,671.5291999999899,14,nonword
348,1,C,3,Lentiform Loewenfeld,3.3.8,c,906.0501999998232,14,nonword
349,1,M,5,Lentiform Loewenfeld,3.3.8,m,619.8700999999419,14,word
350,1,M,1,Lentiform Loewenfeld,3.3.8,m,614.7514999998966,14,word
351,1,C,1,Lentiform Loewenfeld,3.3.8,c,723.0008999999845,14,nonword
352,1,C,1,Lentiform Loewenfeld,3.3.8,c,825.046699999948,14,nonword
353,1,M,2,Lentiform Loewenfeld,3.3.8,m,677.731899999897,14,word
354,1,C,2,Lentiform Loewenfeld,3.3.8,c,651.7458000000333,14,nonword
355,1,M,7,Lentiform Loewenfeld,3.3.8,m,611.3349000001326,14,word
356,1,C,3,Lentiform Loewenfeld,3.3.8,c,611.0480999998981,14,nonword
357,1,C,2,Lentiform Loewenfeld,3.3.8,c,603.9377000001259,14,nonword
358,1,M,5,Lentiform Loewenfeld,3.3.8,m,474.327500000014,14,word
359,0,C,6,Lentiform Loewenfeld,3.3.8,m,704.0650000000605,14,nonword
360,1,M,7,Lentiform Loewenfeld,3.3.8,m,529.3893000001553,14,word
361,1,M,7,Lentiform Loewenfeld,3.3.8,m,541.4962999999989,14,word
362,1,M,4,Lentiform Loewenfeld,3.3.8,m,532.0836999998428,14,word
363,1,C,7,Lentiform Loewenfeld,3.3.8,c,657.8024999999907,14,nonword
364,1,M,2,Lentiform Loewenfeld,3.3.8,m,570.5100999999559,14,word
365,1,M,5,Lentiform Loewenfeld,3.3.8,m,603.0695999999298,14,word
366,1,M,7,Lentiform Loewenfeld,3.3.8,m,931.7921000000788,14,word
367,0,C,6,Lentiform Loewenfeld,3.3.8,m,549.6169000000227,14,nonword
368,1,C,7,Lentiform Loewenfeld,3.3.8,c,722.6698000001488,14,nonword
369,1,M,5,Lentiform Loewenfeld,3.3.8,m,575.3860000000568,14,word
370,1,C,1,Lentiform Loewenfeld,3.3.8,c,673.2622999999439,14,nonword
371,1,M,6,Lentiform Loewenfeld,3.3.8,m,632.276799999876,14,word
372,1,C,7,Lentiform Loewenfeld,3.3.8,c,534.8162000000011,14,nonword
373,0,M,5,Lentiform Loewenfeld,3.3.8,c,548.5235000000102,14,word
374,1,M,1,Lentiform Loewenfeld,3.3.8,m,636.4605000000447,14,word
375,1,C,2,Lentiform Loewenfeld,3.3.8,c,753.3198000000557,14,nonword
376,1,C,2,Lentiform Loewenfeld,3.3.8,c,630.3285999998916,14,nonword
377,1,C,3,Lentiform Loewenfeld,3.3.8,c,626.9009000001242,14,nonword
378,1,C,4,Lentiform Loewenfeld,3.3.8,c,601.7430000001332,14,nonword
379,0,M,4,Lentiform Loewenfeld,3.3.8,c,564.1213000001153,14,word
380,1,M,2,Lentiform Loewenfeld,3.3.8,m,570.6835000000428,14,word
381,1,C,7,Lentiform Loewenfeld,3.3.8,c,987.2522999998182,14,nonword
382,1,M,4,Lentiform Loewenfeld,3.3.8,m,634.888299999875,14,word
383,1,M,3,Lentiform Loewenfeld,3.3.8,m,649.246099999873,14,word
384,1,C,1,Lentiform Loewenfeld,3.3.8,c,581.6793999999063,14,nonword
385,1,C,6,Lentiform Loewenfeld,3.3.8,c,603.4024999999674,14,nonword
386,1,M,7,Lentiform Loewenfeld,3.3.8,m,649.7756999999983,14,word
387,1,M,6,Lentiform Loewenfeld,3.3.8,m,595.5003999999026,14,word
388,1,M,1,Lentiform Loewenfeld,3.3.8,m,664.721300000092,14,word
389,1,C,4,Lentiform Loewenfeld,3.3.8,c,657.7632000000449,14,nonword
390,1,M,7,Lentiform Loewenfeld,3.3.8,m,598.4935000000987,14,word
391,1,C,1,Lentiform Loewenfeld,3.3.8,c,595.3984000001801,14,nonword
392,1,C,5,Lentiform Loewenfeld,3.3.8,c,1032.6016999998828,14,nonword
393,1,C,6,Lentiform Loewenfeld,3.3.8,c,627.9616000001552,14,nonword
394,1,C,1,Lentiform Loewenfeld,3.3.8,c,618.6223000000464,14,nonword
395,1,M,7,Lentiform Loewenfeld,3.3.8,m,717.3989999999758,14,word
396,0,M,6,Lentiform Loewenfeld,3.3.8,c,623.296399999992,14,word
397,1,M,2,Lentiform Loewenfeld,3.3.8,m,633.6333999998169,14,word
398,1,M,7,Lentiform Loewenfeld,3.3.8,m,584.8471000000136,14,word
399,1,C,2,Lentiform Loewenfeld,3.3.8,c,683.2581999998074,14,nonword
400,1,M,5,Lentiform Loewenfeld,3.3.8,m,624.4865000001155,14,word
401,1,M,5,Lentiform Loewenfeld,3.3.8,m,582.0039999999572,14,word
402,1,M,3,Lentiform Loewenfeld,3.3.8,m,604.8775999998907,14,word
403,1,M,3,Lentiform Loewenfeld,3.3.8,m,752.6479000002146,14,word
404,1,C,7,Lentiform Loewenfeld,3.3.8,c,869.6630999998888,14,nonword
405,1,C,6,Lentiform Loewenfeld,3.3.8,c,933.8438000000315,14,nonword
406,1,M,2,Lentiform Loewenfeld,3.3.8,m,681.5333999999566,14,word
407,1,C,3,Lentiform Loewenfeld,3.3.8,c,627.7458999999799,14,nonword
408,1,M,3,Lentiform Loewenfeld,3.3.8,m,1138.9456000000937,14,word
409,1,C,5,Lentiform Loewenfeld,3.3.8,c,656.2620999999344,14,nonword
410,1,M,4,Lentiform Loewenfeld,3.3.8,m,566.1631999999518,14,word
411,1,M,1,Lentiform Loewenfeld,3.3.8,m,721.2093000001041,14,word
412,1,M,7,Lentiform Loewenfeld,3.3.8,m,645.1026000001002,14,word
413,1,C,3,Lentiform Loewenfeld,3.3.8,c,616.6156000000192,14,nonword
414,1,C,1,Lentiform Loewenfeld,3.3.8,c,715.6869000002043,14,nonword
415,1,C,2,Lentiform Loewenfeld,3.3.8,c,714.2082000002265,14,nonword
416,1,M,6,Lentiform Loewenfeld,3.3.8,m,815.2453000001842,14,word
417,1,C,4,Lentiform Loewenfeld,3.3.8,c,668.0923000000184,14,nonword
418,1,M,6,Lentiform Loewenfeld,3.3.8,m,665.0366999998223,14,word
419,1,M,3,Lentiform Loewenfeld,3.3.8,m,640.0411000001477,14,word
